trial_num,session_num,stim_probability_left,contrast,position,response_choice,trial_correct,reaction_time
1,1,0.5,50.0,1.0,-1,0.0,3.4678999999999998
2,1,0.9,50.0,1.0,-1,0.0,20.076700000000002
3,1,0.8,50.0,-1.0,-1,1.0,2.7804009999999977
4,1,0.5,100.0,-1.0,1,0.0,8.520001
5,1,0.7,100.0,-1.0,1,0.0,23.352901000000003
6,1,0.7,100.0,-1.0,-1,1.0,-0.0173989999999975
7,1,0.5,100.0,1.0,1,1.0,1.1210009999999926
8,1,0.5,50.0,-1.0,1,0.0,1.0338009999999969
9,1,0.6,50.0,-1.0,-1,1.0,8.070801000000003
10,1,0.5,50.0,1.0,1,1.0,0.6794009999999986
11,1,0.5,100.0,-1.0,-1,1.0,2.951599999999999
12,1,0.5,50.0,1.0,-1,0.0,2.2074010000000044
13,1,0.5,50.0,-1.0,1,0.0,2.8315999999999804
14,1,0.6,50.0,-1.0,-1,1.0,0.0725010000000168
15,1,0.5,50.0,-1.0,-1,1.0,2.5724010000000135
16,1,0.5,50.0,1.0,-1,0.0,2.891300000000001
17,1,0.4,50.0,1.0,-1,0.0,0.31720099999998297
18,1,0.3,50.0,1.0,-1,0.0,1.5944999999999823
19,1,0.2,50.0,1.0,-1,0.0,2.4602999999999895
20,1,0.2,50.0,1.0,-1,0.0,2.707601000000011
21,1,0.1,50.0,1.0,-1,0.0,3.164900000000017
22,1,0.1,50.0,1.0,1,1.0,4.729801000000009
23,1,0.5,50.0,1.0,-1,0.0,4.145400999999993
24,1,0.1,50.0,1.0,-1,0.0,8.432000999999985
25,1,0.1,50.0,1.0,1,1.0,10.610900999999984
26,1,0.5,100.0,1.0,-1,0.0,4.3972009999999955
27,1,0.2,100.0,1.0,-1,0.0,6.9302009999999825
28,1,0.2,100.0,-1.0,1,0.0,2.7933999999999912
29,1,0.3,100.0,1.0,-1,0.0,9.810300000000012
30,1,0.3,100.0,1.0,1,1.0,13.651099999999985
31,1,0.5,50.0,-1.0,1,0.0,19.859700999999973
32,1,0.5,50.0,-1.0,-1,1.0,26.348099999999988
33,1,0.5,100.0,1.0,-1,0.0,4.245300999999984
34,1,0.4,100.0,-1.0,1,0.0,6.674101000000007
35,1,0.5,100.0,1.0,1,1.0,23.35600000000005
36,1,0.5,50.0,-1.0,-1,1.0,4.995900000000006
37,1,0.5,50.0,1.0,-1,0.0,4.0152009999999905
38,1,0.5,50.0,-1.0,-1,1.0,22.379999999999995
39,1,0.5,100.0,-1.0,1,0.0,3.6292009999999664
40,1,0.5,100.0,-1.0,-1,1.0,3.1025000000000205
41,1,0.5,100.0,1.0,1,1.0,0.5280010000000175
42,1,0.5,50.0,-1.0,-1,1.0,0.7445999999999913
43,1,0.5,100.0,-1.0,-1,1.0,0.2812999999999306
44,1,0.5,50.0,1.0,-1,0.0,20.79630099999997
45,1,0.3,50.0,-1.0,-1,1.0,2.108201000000008
46,1,0.5,100.0,1.0,-1,0.0,3.53570000000002
47,1,0.2,100.0,1.0,-1,0.0,4.736999999999966
48,1,0.2,100.0,-1.0,1,0.0,15.386000000000081
49,1,0.3,100.0,1.0,1,1.0,43.90140000000008
50,1,0.5,100.0,1.0,1,1.0,11.534900000000107
51,1,0.5,50.0,-1.0,-1,1.0,1.3388000000001057
52,1,0.5,50.0,-1.0,1,0.0,1.847801000000004
53,1,0.4,50.0,-1.0,-1,1.0,4.424701000000141
54,1,0.5,50.0,1.0,-1,0.0,1.4885000000000446
55,1,0.4,50.0,-1.0,-1,1.0,4.415801000000101
56,1,0.5,50.0,-1.0,-1,1.0,0.9914000000001124
57,1,0.5,50.0,-1.0,-1,1.0,0.6065009999999802
58,1,0.5,50.0,1.0,-1,0.0,0.3933000000000675
59,1,0.3,50.0,1.0,-1,0.0,0.8920010000001639
60,1,0.2,50.0,1.0,-1,0.0,2.069701000000009
61,1,0.1,50.0,-1.0,-1,1.0,0.3040009999999711
62,1,0.5,50.0,1.0,-1,0.0,4.970200000000091
63,1,0.0,50.0,1.0,-1,0.0,1.4110000000000582
64,1,0.0,50.0,1.0,1,1.0,2.6379010000000562
65,1,0.5,100.0,1.0,-1,0.0,5.461200000000076
66,1,0.1,100.0,1.0,-1,0.0,2.6420010000000502
67,1,0.1,100.0,1.0,-1,0.0,0.6445000000001073
68,1,0.1,100.0,1.0,1,1.0,0.7853010000001177
69,1,0.5,100.0,1.0,1,1.0,7.018600000000106
70,1,0.5,50.0,-1.0,-1,1.0,4.302200000000198
71,1,0.5,50.0,1.0,-1,0.0,0.148401000000149
72,1,0.3,50.0,-1.0,-1,1.0,1.8012010000001055
73,1,0.5,50.0,1.0,-1,0.0,3.013500000000022
74,1,0.3,50.0,1.0,1,1.0,3.853101000000038
75,1,0.5,100.0,-1.0,1,0.0,0.9284010000001217
76,1,0.4,100.0,1.0,-1,0.0,3.970501000000013
77,1,0.4,100.0,1.0,-1,0.0,2.516701000000012
78,1,0.4,100.0,1.0,-1,0.0,2.0649000000000797
79,1,0.3,100.0,-1.0,1,0.0,3.3283010000000104
80,1,0.3,100.0,1.0,-1,0.0,2.144200000000069
81,1,0.3,100.0,1.0,-1,0.0,3.2217000000000553
82,1,0.3,100.0,-1.0,-1,1.0,4.106300000000033
83,1,0.5,100.0,-1.0,1,0.0,4.239800000000059
84,1,0.4,100.0,-1.0,-1,1.0,2.6845010000000684
85,1,0.5,100.0,1.0,1,1.0,8.166101000000026
86,1,0.5,100.0,-1.0,-1,1.0,1.1194000000001552
87,1,0.5,100.0,-1.0,-1,1.0,0.46590100000014445
88,1,0.5,100.0,1.0,-1,0.0,5.201601000000096
89,1,0.3,100.0,-1.0,1,0.0,7.675499999999943
90,1,0.3,100.0,1.0,-1,0.0,0.4613010000000486
91,1,0.3,100.0,-1.0,-1,1.0,1.7349000000000387
92,1,0.5,50.0,1.0,1,1.0,1.6904010000000653
93,1,0.5,100.0,-1.0,-1,1.0,0.39500100000009297
94,1,0.5,50.0,-1.0,-1,1.0,0.5976009999999405
95,1,0.5,50.0,1.0,-1,0.0,9.207500000000095
96,1,0.2,50.0,1.0,-1,0.0,8.787101000000007
97,1,0.2,50.0,1.0,-1,0.0,1.4548000000000911
98,1,0.2,50.0,-1.0,1,0.0,4.420601000000033
99,1,0.3,50.0,1.0,-1,0.0,0.2528010000000904
100,1,0.2,50.0,1.0,-1,0.0,7.192400000000134
101,1,0.2,50.0,1.0,1,1.0,3.691400000000158
102,1,0.5,50.0,1.0,-1,0.0,5.870101000000091
103,1,0.2,50.0,1.0,-1,0.0,14.195501000000036
104,1,0.2,50.0,1.0,-1,0.0,14.114401000000043
105,1,0.2,50.0,1.0,-1,0.0,12.286601000000019
106,1,0.2,50.0,-1.0,1,0.0,6.240301000000045
107,1,0.3,50.0,-1.0,-1,1.0,11.862901000000079
108,1,0.5,50.0,1.0,-1,0.0,3.2355009999998856
109,1,0.2,50.0,1.0,-1,0.0,4.848000000000184
110,1,0.2,50.0,1.0,-1,0.0,4.264700999999832
111,1,0.2,50.0,-1.0,-1,1.0,4.935901000000058
112,1,0.5,100.0,1.0,-1,0.0,8.019000000000233
113,1,0.1,100.0,1.0,-1,0.0,18.449101000000155
114,1,0.1,100.0,1.0,-1,0.0,26.813701000000037
115,1,0.1,100.0,1.0,-1,0.0,32.59400100000016
116,1,0.1,100.0,1.0,-1,0.0,0.9818000000002485
117,1,0.0,100.0,1.0,1,1.0,14.975001000000248
118,1,0.5,50.0,1.0,-1,0.0,29.00330000000008
119,1,0.1,50.0,1.0,1,1.0,9.678199999999833
120,1,0.5,50.0,-1.0,-1,1.0,4.827800000000252
121,1,0.5,50.0,1.0,-1,0.0,3.0487010000001646
122,1,0.2,50.0,1.0,-1,0.0,2.7214010000002418
123,1,0.2,50.0,-1.0,-1,1.0,5.044700000000148
124,1,0.5,100.0,1.0,-1,0.0,5.366301000000021
125,1,0.2,100.0,1.0,-1,0.0,3.0184009999998125
126,1,0.2,100.0,1.0,-1,0.0,9.921899999999823
127,1,0.2,100.0,1.0,-1,0.0,1.5620000000001255
128,1,0.1,100.0,1.0,-1,0.0,0.9130000000000109
129,1,0.1,100.0,-1.0,-1,1.0,4.845201000000088
130,1,0.5,50.0,-1.0,-1,1.0,0.9043010000002596
131,1,0.5,50.0,1.0,-1,0.0,7.467599999999948
132,1,0.0,50.0,1.0,-1,0.0,2.1834000000001197
133,1,0.0,50.0,1.0,-1,0.0,2.465800000000172
134,1,0.0,50.0,1.0,-1,0.0,3.4467010000000755
135,1,0.0,50.0,1.0,1,1.0,5.765400000000227
136,1,0.5,50.0,1.0,-1,0.0,3.5045010000001184
137,1,0.1,50.0,1.0,-1,0.0,1.236900999999989
138,1,0.1,50.0,-1.0,1,0.0,5.117399999999861
139,1,0.2,50.0,1.0,-1,0.0,21.335900000000265
140,1,0.2,50.0,1.0,-1,0.0,14.036501000000271
141,1,0.2,50.0,-1.0,-1,1.0,9.88900099999978
142,1,0.5,100.0,-1.0,-1,1.0,2.832200000000057
143,1,0.5,50.0,-1.0,-1,1.0,1.0891010000002552
144,1,0.5,50.0,-1.0,-1,1.0,0.3731999999999971
145,1,0.5,100.0,-1.0,1,0.0,1.7364000000000033
146,1,0.2,100.0,-1.0,-1,1.0,3.113299999999981
147,1,0.5,50.0,1.0,-1,0.0,2.219500000000153
148,1,0.2,50.0,1.0,-1,0.0,2.649500999999873
149,1,0.1,50.0,1.0,-1,0.0,1.9288000000001375
150,1,0.1,50.0,1.0,-1,0.0,5.122701000000006
151,1,0.1,50.0,1.0,-1,0.0,0.9848010000002887
152,1,0.1,50.0,1.0,-1,0.0,0.8559000000000196
153,1,0.1,50.0,1.0,1,1.0,1.5590000000001965
154,1,0.5,100.0,1.0,-1,0.0,1.6696000000001732
155,1,0.2,100.0,-1.0,-1,1.0,0.3521009999999478
156,1,0.5,100.0,-1.0,-1,1.0,4.523101000000224
157,1,0.5,100.0,1.0,-1,0.0,3.6144010000000435
158,1,0.1,100.0,1.0,-1,0.0,1.8710009999999784
159,1,0.1,100.0,1.0,-1,0.0,1.3811010000001716
160,1,0.1,100.0,1.0,-1,0.0,0.8217010000000755
161,1,0.1,100.0,1.0,-1,0.0,2.1483009999999467
162,1,0.1,100.0,1.0,-1,0.0,3.0187000000000808
163,1,0.1,100.0,1.0,-1,0.0,3.174201000000039
164,1,0.0,100.0,1.0,-1,0.0,3.107400000000098
165,1,0.0,100.0,1.0,-1,0.0,1.3096000000000458
166,1,0.0,100.0,1.0,-1,0.0,4.480901000000358
167,1,0.0,100.0,1.0,-1,0.0,11.506399999999985
168,1,0.0,100.0,1.0,-1,0.0,8.229800999999952
169,1,0.0,100.0,1.0,-1,0.0,4.216701000000285
170,1,0.0,100.0,1.0,-1,0.0,19.0163
171,1,0.0,100.0,1.0,-1,0.0,22.02330000000029
172,1,0.0,100.0,1.0,-1,0.0,20.744300000000067
174,1,0.1,100.0,1.0,-1,0.0,48.361801000000014
175,1,0.1,100.0,1.0,1,1.0,33.94210100000009
176,1,0.5,50.0,1.0,-1,0.0,9.857700000000023
177,1,0.2,50.0,1.0,-1,0.0,6.6445010000002185
178,1,0.2,50.0,1.0,-1,0.0,19.316301000000067
179,1,0.2,50.0,1.0,-1,0.0,37.76670100000024
180,1,0.2,50.0,1.0,-1,0.0,5.796199999999999
181,1,0.2,50.0,-1.0,-1,1.0,6.6085000000002765
182,1,0.5,100.0,1.0,-1,0.0,3.6922010000000682
183,1,0.2,100.0,1.0,-1,0.0,2.3986999999999625
184,1,0.1,100.0,-1.0,-1,1.0,1.365400000000136
185,1,0.5,50.0,1.0,-1,0.0,2.6719000000000506
186,1,0.0,50.0,-1.0,-1,1.0,3.6753009999999904
187,1,0.5,100.0,1.0,-1,0.0,2.0673009999995884
188,1,0.0,100.0,-1.0,-1,1.0,1.5001999999999498
189,1,0.5,50.0,1.0,-1,0.0,1.1264000000001033
190,1,0.0,50.0,-1.0,-1,1.0,0.7337999999995191
191,1,0.5,100.0,1.0,-1,0.0,4.500699999999597
192,1,0.0,100.0,1.0,1,1.0,1.303400000000238
193,1,0.5,50.0,1.0,-1,0.0,2.2830009999997856
194,1,0.1,50.0,1.0,-1,0.0,0.19719999999961146
195,1,0.1,50.0,1.0,-1,0.0,1.2270000000003165
196,1,0.1,50.0,1.0,-1,0.0,3.0414010000004055
197,1,0.1,50.0,1.0,-1,0.0,2.9242009999998118
198,1,0.1,50.0,1.0,-1,0.0,1.581300999999712
199,1,0.1,50.0,1.0,-1,0.0,3.0911009999999806
200,1,0.1,50.0,1.0,-1,0.0,7.206899999999678
201,1,0.1,50.0,1.0,-1,0.0,5.684901000000082
202,1,0.1,50.0,1.0,-1,0.0,30.67759999999953
203,1,0.0,50.0,1.0,-1,0.0,3.029199999999946
204,1,0.0,50.0,1.0,-1,0.0,18.042399999999816
205,1,0.0,50.0,1.0,-1,0.0,6.949701000000005
206,1,0.0,50.0,1.0,-1,0.0,1.2021999999997206
207,1,0.0,50.0,1.0,-1,0.0,47.56810099999984
208,1,0.0,50.0,1.0,-1,0.0,8.694400999999743
209,1,0.0,50.0,-1.0,1,0.0,42.425201000000015
210,1,0.1,50.0,1.0,1,1.0,37.62980099999959
211,1,0.5,50.0,1.0,-1,0.0,3.691001000000142
212,1,0.2,50.0,1.0,-1,0.0,5.767499999999927
213,1,0.2,50.0,-1.0,-1,1.0,8.216200999999728
214,1,0.5,100.0,1.0,-1,0.0,2.6596010000002934
215,1,0.2,100.0,1.0,1,1.0,8.29220099999975
216,1,0.5,50.0,1.0,-1,0.0,43.38650099999995
217,1,0.3,50.0,-1.0,-1,1.0,5.71040099999982
218,1,0.5,100.0,1.0,-1,0.0,1.9223010000000613
219,1,0.3,100.0,-1.0,-1,1.0,0.7653999999997723
220,1,0.5,50.0,1.0,-1,0.0,10.05199999999968
221,1,0.1,50.0,1.0,-1,0.0,3.0960000000000036
222,1,0.1,50.0,1.0,-1,0.0,7.099600999999893
223,1,0.1,50.0,1.0,-1,0.0,11.144799999999577
224,1,0.1,50.0,-1.0,-1,1.0,4.188499999999749
225,1,0.5,100.0,1.0,-1,0.0,10.096900999999889
226,1,0.0,100.0,1.0,1,1.0,15.744500999999673
227,1,0.5,100.0,1.0,1,1.0,4.514000000000124
228,1,0.5,50.0,1.0,-1,0.0,2.5657999999998538
229,1,0.2,50.0,1.0,-1,0.0,11.470799999999599
230,1,0.2,50.0,1.0,-1,0.0,4.164299999999912
231,1,0.2,50.0,1.0,-1,0.0,9.209600999999566
232,1,0.2,50.0,1.0,-1,0.0,7.722400000000107
233,1,0.2,50.0,-1.0,-1,1.0,5.621200999999928
234,1,0.5,50.0,1.0,1,1.0,2.6098009999996066
235,1,0.5,100.0,1.0,1,1.0,10.693301000000247
236,1,0.5,50.0,-1.0,1,0.0,2.4832000000001244
237,1,0.4,50.0,-1.0,1,0.0,1.6005009999998947
238,1,0.4,50.0,1.0,-1,0.0,12.664900999999645
239,1,0.4,50.0,-1.0,-1,1.0,6.872299999999541
240,1,0.5,50.0,-1.0,-1,1.0,11.236399999999776
241,1,0.5,50.0,-1.0,1,0.0,2.8774999999996
242,1,0.5,50.0,1.0,1,1.0,12.043500000000222
243,1,0.5,50.0,1.0,1,1.0,7.240400000000136
244,1,0.5,100.0,1.0,1,1.0,3.215400999999474
245,1,0.5,100.0,-1.0,1,0.0,5.545200999999906
1,2,0.5,100.0,1.0,-1,0.0,10.902899999999999
2,2,0.9,100.0,-1.0,-1,1.0,5.1326009999999975
3,2,0.5,50.0,-1.0,-1,1.0,2.7378009999999975
4,2,0.5,100.0,1.0,-1,0.0,2.006900999999999
5,2,0.6,100.0,-1.0,-1,1.0,2.0970009999999917
6,2,0.5,100.0,1.0,-1,0.0,2.899600999999997
7,2,0.4,100.0,-1.0,1,0.0,1.5369010000000003
8,2,0.4,100.0,1.0,-1,0.0,18.421301
9,2,0.3,100.0,1.0,-1,0.0,14.053599999999989
10,2,0.2,100.0,1.0,1,1.0,39.19420099999999
11,2,0.5,100.0,-1.0,1,0.0,0.7490009999999927
12,2,0.3,100.0,1.0,1,1.0,7.697399999999988
13,2,0.5,100.0,1.0,1,1.0,0.7734000000000094
14,2,0.5,100.0,-1.0,1,0.0,3.901600000000002
15,2,0.6,100.0,-1.0,-1,1.0,2.68470099999999
16,2,0.5,50.0,-1.0,1,0.0,0.8414009999999905
17,2,0.7,50.0,-1.0,-1,1.0,22.021000000000015
18,2,0.5,100.0,-1.0,1,0.0,0.6671010000000024
19,2,0.7,100.0,1.0,1,1.0,3.248800999999986
20,2,0.5,50.0,-1.0,-1,1.0,3.917301000000009
21,2,0.5,50.0,-1.0,-1,1.0,2.4288010000000213
22,2,0.5,100.0,1.0,-1,0.0,6.634600000000006
23,2,0.5,100.0,-1.0,-1,1.0,9.629300999999998
24,2,0.5,50.0,-1.0,1,0.0,15.929799999999972
25,2,0.4,50.0,1.0,-1,0.0,11.200400999999971
26,2,0.4,50.0,-1.0,-1,1.0,8.262600999999961
27,2,0.5,50.0,-1.0,-1,1.0,4.634799999999984
28,2,0.5,50.0,1.0,1,1.0,7.351599999999962
29,2,0.5,100.0,1.0,1,1.0,12.85080099999999
30,2,0.5,100.0,-1.0,-1,1.0,6.973500999999999
31,2,0.5,50.0,1.0,-1,0.0,4.878100000000018
32,2,0.3,50.0,-1.0,-1,1.0,3.5025009999999384
33,2,0.5,100.0,1.0,1,1.0,18.14940100000001
34,2,0.5,100.0,1.0,1,1.0,0.8710009999999784
35,2,0.5,50.0,1.0,1,1.0,1.0641999999999712
36,2,0.5,50.0,-1.0,1,0.0,5.650500999999963
37,2,0.6,50.0,-1.0,1,0.0,7.715800999999942
38,2,0.7,50.0,-1.0,-1,1.0,6.981000999999992
39,2,0.5,100.0,-1.0,-1,1.0,10.39530099999996
40,2,0.5,50.0,-1.0,-1,1.0,4.394401000000016
41,2,0.5,100.0,-1.0,-1,1.0,3.3926999999999907
42,2,0.5,100.0,-1.0,-1,1.0,4.193100999999956
43,2,0.5,100.0,-1.0,-1,1.0,3.155700999999965
44,2,0.5,100.0,-1.0,1,0.0,1.1730009999999993
45,2,0.4,100.0,1.0,-1,0.0,4.821700000000021
46,2,0.3,100.0,-1.0,-1,1.0,4.235200999999961
47,2,0.5,50.0,1.0,-1,0.0,6.107600999999988
48,2,0.1,50.0,1.0,-1,0.0,8.310400000000016
49,2,0.1,50.0,1.0,-1,0.0,2.1983999999999924
50,2,0.1,50.0,-1.0,-1,1.0,5.450601000000006
51,2,0.5,100.0,1.0,1,1.0,9.706199999999967
52,2,0.5,50.0,1.0,1,1.0,0.3054010000000744
53,2,0.5,100.0,1.0,1,1.0,2.120300000000043
54,2,0.5,50.0,1.0,1,1.0,3.2931009999999787
55,2,0.5,100.0,-1.0,1,0.0,1.6359009999999898
56,2,0.5,100.0,-1.0,-1,1.0,3.500500000000102
57,2,0.5,100.0,1.0,1,1.0,6.0432000000001835
58,2,0.5,100.0,1.0,-1,0.0,4.160000000000082
59,2,0.6,100.0,-1.0,-1,1.0,2.6726999999999634
60,2,0.5,50.0,1.0,1,1.0,27.713499999999954
61,2,0.5,50.0,-1.0,1,0.0,1.0841010000000324
62,2,0.7,50.0,1.0,1,1.0,11.198601000000053
63,2,0.5,100.0,-1.0,-1,1.0,6.666700999999989
64,2,0.5,50.0,1.0,1,1.0,12.899801000000025
65,2,0.5,50.0,1.0,-1,0.0,2.2088000000001102
66,2,0.5,50.0,1.0,1,1.0,0.22790000000009059
67,2,0.5,100.0,1.0,1,1.0,4.521300999999994
68,2,0.5,50.0,-1.0,1,0.0,1.0473010000000613
69,2,0.7,50.0,-1.0,-1,1.0,6.486100000000079
70,2,0.5,100.0,1.0,1,1.0,10.0702
71,2,0.5,50.0,-1.0,-1,1.0,5.1170000000000755
72,2,0.5,100.0,-1.0,-1,1.0,4.816001000000028
73,2,0.5,100.0,-1.0,-1,1.0,6.868100000000027
74,2,0.5,100.0,1.0,1,1.0,7.301601000000005
75,2,0.5,100.0,1.0,1,1.0,7.039899999999989
76,2,0.5,100.0,1.0,1,1.0,1.278201000000081
77,2,0.5,100.0,1.0,1,1.0,5.268901000000028
78,2,0.5,100.0,1.0,1,1.0,6.411601000000019
79,2,0.5,50.0,-1.0,-1,1.0,9.909801000000016
80,2,0.5,50.0,-1.0,-1,1.0,3.0634000000000015
81,2,0.5,50.0,1.0,1,1.0,5.308800000000019
82,2,0.5,100.0,-1.0,-1,1.0,4.769001000000003
83,2,0.5,100.0,-1.0,-1,1.0,7.346700000000055
84,2,0.5,100.0,-1.0,1,0.0,5.22660099999996
85,2,0.6,100.0,1.0,1,1.0,5.710900999999922
86,2,0.5,50.0,1.0,1,1.0,3.5950000000000273
87,2,0.5,100.0,-1.0,-1,1.0,5.5963010000000395
88,2,0.5,100.0,-1.0,-1,1.0,4.712400000000002
89,2,0.5,100.0,1.0,-1,0.0,14.097000000000094
90,2,0.4,100.0,1.0,-1,0.0,2.0301000000000613
91,2,0.4,100.0,1.0,1,1.0,17.67740100000003
92,2,0.5,50.0,1.0,1,1.0,3.2819010000000617
93,2,0.5,100.0,1.0,1,1.0,0.6470010000001594
94,2,0.5,50.0,1.0,1,1.0,0.797800000000052
95,2,0.5,50.0,1.0,1,1.0,5.127300999999989
96,2,0.5,100.0,1.0,1,1.0,5.82650000000001
97,2,0.5,50.0,1.0,1,1.0,3.3560010000001057
98,2,0.5,50.0,-1.0,1,0.0,5.24369999999999
99,2,0.8,50.0,1.0,1,1.0,6.019701000000055
100,2,0.5,50.0,-1.0,-1,1.0,3.0270009999999274
101,2,0.5,50.0,-1.0,-1,1.0,2.3952000000000453
102,2,0.5,50.0,1.0,-1,0.0,5.854500999999914
103,2,0.7,50.0,1.0,1,1.0,14.065701000000104
104,2,0.5,100.0,-1.0,-1,1.0,0.885599999999954
105,2,0.5,50.0,-1.0,-1,1.0,3.323600000000056
106,2,0.5,100.0,-1.0,-1,1.0,0.42790000000013606
107,2,0.5,50.0,1.0,1,1.0,3.7205000000000155
108,2,0.5,50.0,1.0,1,1.0,0.33560099999999693
109,2,0.5,50.0,-1.0,-1,1.0,1.161401000000069
110,2,0.5,50.0,-1.0,-1,1.0,2.014001000000121
111,2,0.5,100.0,1.0,-1,0.0,1.7929000000001452
112,2,0.3,100.0,1.0,-1,0.0,0.9046000000000731
113,2,0.3,100.0,-1.0,-1,1.0,3.7802010000000337
114,2,0.5,50.0,1.0,-1,0.0,4.004601000000093
115,2,0.2,50.0,1.0,-1,0.0,10.715600999999879
116,2,0.2,50.0,1.0,-1,0.0,2.182199999999966
117,2,0.2,50.0,-1.0,-1,1.0,0.2701999999999316
118,2,0.5,50.0,1.0,-1,0.0,0.49660100000005514
119,2,0.0,50.0,1.0,-1,0.0,5.762000000000171
120,2,0.0,50.0,1.0,-1,0.0,2.98920000000021
121,2,0.0,50.0,1.0,-1,0.0,9.553499999999985
122,2,0.0,50.0,1.0,1,1.0,7.7266000000001895
123,2,0.5,50.0,1.0,1,1.0,4.613400000000183
124,2,0.5,50.0,1.0,1,1.0,7.581500999999889
125,2,0.5,100.0,1.0,1,1.0,0.9356010000001334
126,2,0.5,100.0,1.0,1,1.0,14.863101000000142
127,2,0.5,100.0,-1.0,-1,1.0,0.9878009999999904
128,2,0.5,50.0,1.0,1,1.0,0.9739009999998416
129,2,0.5,50.0,1.0,1,1.0,0.7133000000001175
130,2,0.5,50.0,-1.0,-1,1.0,3.4283000000000357
131,2,0.5,100.0,1.0,1,1.0,1.0028999999999542
132,2,0.5,50.0,-1.0,-1,1.0,0.9795010000000275
133,2,0.5,50.0,-1.0,1,0.0,2.314200000000028
134,2,0.7,50.0,-1.0,1,0.0,3.499400999999807
135,2,0.7,50.0,1.0,1,1.0,2.8972009999999955
136,2,0.5,100.0,-1.0,1,0.0,5.052500999999893
137,2,0.7,100.0,1.0,-1,0.0,1.1868000000001757
138,2,0.7,100.0,-1.0,1,0.0,4.949600999999802
139,2,0.7,100.0,-1.0,-1,1.0,7.280799999999999
140,2,0.5,50.0,-1.0,-1,1.0,1.8515010000000984
141,2,0.5,100.0,-1.0,1,0.0,10.630302000000029
142,2,0.6,100.0,-1.0,-1,1.0,6.32260099999985
143,2,0.5,50.0,-1.0,-1,1.0,6.102102000000059
144,2,0.5,100.0,-1.0,-1,1.0,0.48650099999986196
145,2,0.5,50.0,1.0,-1,0.0,9.586301000000049
146,2,0.3,50.0,-1.0,-1,1.0,5.532301000000189
147,2,0.5,50.0,1.0,1,1.0,9.287602000000106
148,2,0.5,100.0,1.0,1,1.0,12.404801000000134
149,2,0.5,100.0,1.0,1,1.0,8.624901000000136
150,2,0.5,50.0,1.0,1,1.0,2.4084020000000237
151,2,0.5,100.0,-1.0,-1,1.0,1.6910020000000259
152,2,0.5,50.0,-1.0,-1,1.0,6.702102000000195
153,2,0.5,50.0,-1.0,-1,1.0,5.065201999999999
154,2,0.5,100.0,1.0,1,1.0,6.028402000000142
155,2,0.5,50.0,-1.0,-1,1.0,8.442301999999927
156,2,0.5,100.0,1.0,1,1.0,4.248502000000144
157,2,0.5,50.0,-1.0,-1,1.0,6.099401000000171
158,2,0.5,50.0,-1.0,-1,1.0,3.519500999999991
159,2,0.5,100.0,1.0,1,1.0,9.213400999999976
160,2,0.5,50.0,-1.0,-1,1.0,7.243501000000151
161,2,0.5,100.0,1.0,1,1.0,13.889501999999766
162,2,0.5,100.0,1.0,1,1.0,6.909701999999925
163,2,0.5,100.0,1.0,1,1.0,8.270400999999765
164,2,0.5,50.0,-1.0,-1,1.0,6.767801999999847
165,2,0.5,100.0,-1.0,-1,1.0,8.941201000000092
166,2,0.5,100.0,1.0,1,1.0,9.416001000000051
167,2,0.5,100.0,1.0,-1,0.0,9.402102000000014
168,2,0.5,100.0,1.0,1,1.0,1.015101000000186
169,2,0.5,50.0,1.0,1,1.0,4.564601000000039
170,2,0.5,100.0,1.0,-1,0.0,15.60840200000007
171,2,0.6,100.0,-1.0,-1,1.0,10.767401000000064
172,2,0.5,100.0,-1.0,-1,1.0,13.316402000000153
173,2,0.5,100.0,-1.0,1,0.0,9.847401999999875
174,2,0.4,100.0,1.0,1,1.0,2.507101000000148
175,2,0.5,50.0,-1.0,-1,1.0,6.048101000000088
176,2,0.5,100.0,-1.0,-1,1.0,9.361802000000125
177,2,0.5,100.0,-1.0,-1,1.0,4.8276019999998425
178,2,0.5,100.0,1.0,-1,0.0,6.67550099999994
179,2,0.3,100.0,-1.0,-1,1.0,4.5153009999999085
180,2,0.5,50.0,-1.0,-1,1.0,0.1805019999999331
181,2,0.5,50.0,-1.0,-1,1.0,0.29640200000017103
182,2,0.5,50.0,-1.0,-1,1.0,0.8858010000001286
183,2,0.5,100.0,-1.0,-1,1.0,0.747101000000157
184,2,0.5,100.0,1.0,1,1.0,1.1022009999999227
185,2,0.5,50.0,1.0,1,1.0,0.8743010000002869
186,2,0.5,50.0,-1.0,-1,1.0,4.616802000000007
187,2,0.5,50.0,-1.0,-1,1.0,4.587301000000252
188,2,0.5,100.0,-1.0,-1,1.0,3.9776010000000497
189,2,0.5,50.0,1.0,-1,0.0,7.334700999999768
190,2,0.2,50.0,1.0,-1,0.0,2.5614020000000437
191,2,0.2,50.0,1.0,-1,0.0,5.926701000000094
192,2,0.2,50.0,-1.0,-1,1.0,3.5908019999999397
193,2,0.5,100.0,-1.0,-1,1.0,6.557901000000129
194,2,0.5,50.0,1.0,-1,0.0,6.6887020000001485
195,2,0.1,50.0,-1.0,-1,1.0,3.1357020000000375
196,2,0.5,50.0,1.0,1,1.0,2.6497009999998227
197,2,0.5,100.0,-1.0,-1,1.0,6.191301999999951
198,2,0.5,100.0,1.0,1,1.0,11.355101999999988
199,2,0.5,50.0,1.0,1,1.0,7.017402000000175
200,2,0.5,100.0,1.0,1,1.0,4.8739009999999325
201,2,0.5,100.0,1.0,1,1.0,7.504102000000103
202,2,0.5,100.0,-1.0,-1,1.0,12.170601999999917
203,2,0.5,100.0,1.0,1,1.0,5.171301000000085
204,2,0.5,50.0,1.0,1,1.0,4.2725010000001475
205,2,0.5,50.0,1.0,1,1.0,3.494301999999834
206,2,0.5,50.0,-1.0,-1,1.0,0.7655020000001969
207,2,0.5,100.0,1.0,-1,0.0,0.8480020000001787
208,2,0.7,100.0,1.0,1,1.0,4.976900999999998
209,2,0.5,100.0,1.0,1,1.0,0.5477009999999609
210,2,0.5,50.0,1.0,1,1.0,0.5401010000000497
211,2,0.5,50.0,-1.0,-1,1.0,1.1462020000001303
212,2,0.5,100.0,-1.0,1,0.0,0.6417010000000118
213,2,0.7,100.0,1.0,1,1.0,4.540901000000076
214,2,0.5,50.0,-1.0,1,0.0,6.247902000000067
215,2,0.7,50.0,1.0,1,1.0,3.3482010000002447
216,2,0.5,100.0,-1.0,1,0.0,0.5565010000000257
217,2,0.8,100.0,-1.0,-1,1.0,3.9657019999999648
218,2,0.5,50.0,-1.0,-1,1.0,3.3296009999999114
219,2,0.5,50.0,1.0,1,1.0,1.6044010000000526
220,2,0.5,100.0,1.0,1,1.0,5.423402000000124
221,2,0.5,50.0,-1.0,-1,1.0,4.9645009999999274
222,2,0.5,100.0,1.0,1,1.0,23.034601000000066
223,2,0.5,50.0,-1.0,1,0.0,5.9945010000001275
224,2,0.7,50.0,-1.0,-1,1.0,6.355700999999954
225,2,0.5,100.0,-1.0,-1,1.0,3.5058010000000195
226,2,0.5,50.0,1.0,1,1.0,0.7908010000001013
227,2,0.5,50.0,-1.0,-1,1.0,5.230002000000013
228,2,0.5,100.0,1.0,-1,0.0,11.71000099999992
229,2,0.5,100.0,-1.0,-1,1.0,15.124601999999868
230,2,0.5,100.0,-1.0,-1,1.0,5.638000999999804
231,2,0.5,100.0,1.0,-1,0.0,4.365301999999701
232,2,0.3,100.0,1.0,-1,0.0,11.292500999999447
233,2,0.2,100.0,1.0,-1,0.0,5.692001999999775
234,2,0.1,100.0,1.0,-1,0.0,34.831600999999864
235,2,0.1,100.0,1.0,1,1.0,20.063400999999885
236,2,0.5,100.0,1.0,1,1.0,0.9899019999998018
237,2,0.5,50.0,-1.0,1,0.0,1.8124010000001363
238,2,0.3,50.0,1.0,1,1.0,5.230701999999837
239,2,0.5,100.0,1.0,1,1.0,7.704301999999643
240,2,0.5,100.0,1.0,1,1.0,4.44760099999985
241,2,0.5,100.0,1.0,1,1.0,8.69150099999979
242,2,0.5,100.0,-1.0,-1,1.0,6.365301999999701
243,2,0.5,50.0,-1.0,-1,1.0,2.318401999999878
244,2,0.5,100.0,1.0,-1,0.0,2.4430019999999786
245,2,0.7,100.0,-1.0,-1,1.0,3.0679019999997763
246,2,0.5,100.0,1.0,-1,0.0,1.792500999999902
247,2,0.5,100.0,1.0,-1,0.0,5.934600999999475
248,2,0.4,100.0,1.0,1,1.0,6.469100999999682
249,2,0.5,50.0,-1.0,-1,1.0,0.34940199999982724
250,2,0.5,100.0,1.0,1,1.0,7.744502000000011
251,2,0.5,50.0,-1.0,-1,1.0,6.694101999999475
252,2,0.5,50.0,-1.0,-1,1.0,8.534401999999773
253,2,0.5,100.0,1.0,-1,0.0,4.170701999999892
254,2,0.2,100.0,1.0,1,1.0,5.871801999999661
255,2,0.5,50.0,1.0,1,1.0,8.46000099999992
256,2,0.5,100.0,-1.0,-1,1.0,6.548301999999239
257,2,0.5,100.0,-1.0,-1,1.0,6.842302000000018
258,2,0.5,100.0,-1.0,1,0.0,1.5386019999996279
259,2,0.4,100.0,1.0,1,1.0,3.0650009999994836
260,2,0.5,50.0,1.0,1,1.0,6.786400999999387
261,2,0.5,50.0,1.0,1,1.0,0.35760199999958786
262,2,0.5,50.0,1.0,1,1.0,5.957300999999916
263,2,0.5,50.0,1.0,-1,0.0,0.7912009999995462
264,2,0.7,50.0,-1.0,-1,1.0,4.96000099999992
265,2,0.5,100.0,-1.0,1,0.0,10.792900999999802
266,2,0.6,100.0,-1.0,-1,1.0,10.839100999999573
267,2,0.5,50.0,-1.0,1,0.0,0.4288019999999051
268,2,0.7,50.0,-1.0,-1,1.0,7.254000999999789
269,2,0.5,50.0,-1.0,-1,1.0,9.200700999999754
270,2,0.5,50.0,1.0,1,1.0,13.25930100000005
271,2,0.5,100.0,-1.0,1,0.0,5.1213019999995595
272,2,0.5,100.0,-1.0,1,0.0,28.262301000000207
273,2,0.5,100.0,-1.0,1,0.0,7.7378020000001015
274,2,0.6,100.0,1.0,1,1.0,43.440802000000076
275,2,0.5,100.0,1.0,1,1.0,0.32020099999954255
276,2,0.5,50.0,-1.0,-1,1.0,0.5695019999993747
277,2,0.5,50.0,1.0,1,1.0,0.6898009999995338
278,2,0.5,100.0,1.0,1,1.0,2.1581019999998716
279,2,0.5,100.0,1.0,1,1.0,1.1801009999994676
280,2,0.5,100.0,1.0,1,1.0,0.6459010000003218
281,2,0.5,100.0,1.0,1,1.0,1.7421009999998205
282,2,0.5,100.0,-1.0,1,0.0,0.44680099999959566
283,2,0.9,100.0,1.0,1,1.0,2.3264020000001437
284,2,0.5,50.0,-1.0,1,0.0,6.3617019999996955
285,2,0.9,50.0,-1.0,-1,1.0,15.050701999999546
286,2,0.5,100.0,-1.0,1,0.0,5.270701999999801
287,2,0.9,100.0,-1.0,-1,1.0,33.2710019999995
288,2,0.5,50.0,-1.0,-1,1.0,12.606000999999651
289,2,0.5,50.0,1.0,1,1.0,12.093401999999514
290,2,0.5,100.0,-1.0,1,0.0,1.629001999999673
291,2,0.7,100.0,-1.0,-1,1.0,1.8685019999998076
292,2,0.5,50.0,-1.0,-1,1.0,3.090001999999913
293,2,0.5,50.0,1.0,-1,0.0,3.1357009999992442
294,2,0.4,50.0,-1.0,-1,1.0,5.613301999999749
295,2,0.5,100.0,1.0,1,1.0,5.935600999999679
296,2,0.5,100.0,-1.0,1,0.0,0.5200009999998656
297,2,0.4,100.0,-1.0,-1,1.0,11.928900999999769
298,2,0.5,100.0,1.0,1,1.0,15.63330199999973
299,2,0.5,100.0,-1.0,-1,1.0,0.43860099999983504
300,2,0.5,50.0,1.0,1,1.0,0.49410200000011173
301,2,0.5,100.0,-1.0,-1,1.0,1.4542019999998956
302,2,0.5,100.0,-1.0,-1,1.0,0.9356020000000171
303,2,0.5,50.0,1.0,1,1.0,0.4420009999994363
304,2,0.5,100.0,-1.0,-1,1.0,0.3413009999994756
305,2,0.5,50.0,-1.0,-1,1.0,0.48360200000024633
306,2,0.5,100.0,1.0,-1,0.0,1.1428019999998469
307,2,0.3,100.0,-1.0,-1,1.0,2.701502000000346
308,2,0.5,50.0,-1.0,-1,1.0,0.26690099999996164
309,2,0.5,100.0,1.0,-1,0.0,0.14890199999945253
310,2,0.2,100.0,1.0,-1,0.0,3.178001999999651
311,2,0.1,100.0,-1.0,-1,1.0,0.6001019999998789
312,2,0.5,100.0,1.0,-1,0.0,10.26080200000024
313,2,0.1,100.0,1.0,1,1.0,18.00590099999954
314,2,0.5,100.0,-1.0,-1,1.0,0.8694009999999253
1,3,0.5,100.0,-1.0,-1,1.0,11.5959
2,3,0.5,100.0,1.0,-1,0.0,12.0597
3,3,0.8,100.0,1.0,-1,0.0,10.373798999999998
4,3,0.7,100.0,-1.0,-1,1.0,3.3601990000000015
5,3,0.5,100.0,1.0,-1,0.0,3.113599999999998
6,3,0.5,100.0,1.0,1,1.0,5.570100000000004
7,3,0.5,100.0,-1.0,-1,1.0,10.157599000000005
8,3,0.5,50.0,-1.0,-1,1.0,0.4642989999999969
9,3,0.5,50.0,1.0,-1,0.0,3.263999999999996
10,3,0.2,50.0,-1.0,-1,1.0,7.219799000000009
11,3,0.5,50.0,-1.0,-1,1.0,4.710899999999995
12,3,0.5,100.0,-1.0,-1,1.0,4.578499000000008
13,3,0.5,50.0,-1.0,-1,1.0,3.3988999999999976
14,3,0.5,100.0,1.0,-1,0.0,1.9008000000000038
15,3,0.1,100.0,1.0,-1,0.0,7.0142999999999915
16,3,0.1,100.0,1.0,-1,0.0,2.64579999999998
17,3,0.0,100.0,1.0,-1,0.0,3.090299999999985
18,3,0.0,100.0,1.0,-1,0.0,14.585498999999999
19,3,0.0,100.0,1.0,1,1.0,2.5241000000000042
20,3,0.5,100.0,1.0,1,1.0,6.995899999999978
21,3,0.5,50.0,1.0,-1,0.0,4.437700000000007
22,3,0.2,50.0,1.0,-1,0.0,1.9241999999999848
23,3,0.2,50.0,1.0,-1,0.0,12.732798999999972
24,3,0.2,50.0,1.0,-1,0.0,2.6187989999999672
25,3,0.2,50.0,-1.0,-1,1.0,4.5391999999999655
26,3,0.5,100.0,1.0,-1,0.0,6.871898999999985
27,3,0.2,100.0,1.0,-1,0.0,3.604799999999983
28,3,0.2,100.0,1.0,-1,0.0,3.9700989999999763
29,3,0.2,100.0,1.0,1,1.0,0.7074989999999843
30,3,0.5,100.0,-1.0,-1,1.0,1.2870000000000346
31,3,0.5,100.0,-1.0,1,0.0,0.5819989999999962
32,3,0.2,100.0,1.0,-1,0.0,3.396899000000019
33,3,0.2,100.0,1.0,1,1.0,3.649099999999976
34,3,0.5,50.0,1.0,-1,0.0,0.6183999999999514
35,3,0.3,50.0,-1.0,-1,1.0,3.2681989999999814
36,3,0.5,100.0,-1.0,-1,1.0,3.243199999999945
37,3,0.5,100.0,1.0,-1,0.0,3.3192999999999415
38,3,0.3,100.0,1.0,-1,0.0,0.5414989999999875
39,3,0.3,100.0,1.0,-1,0.0,4.7724999999999795
40,3,0.2,100.0,1.0,1,1.0,4.971498999999994
41,3,0.5,50.0,1.0,-1,0.0,3.8299989999999866
42,3,0.2,50.0,1.0,1,1.0,3.4826999999999657
43,3,0.5,100.0,1.0,1,1.0,10.454598999999973
44,3,0.5,100.0,-1.0,-1,1.0,4.563998999999967
45,3,0.5,100.0,1.0,1,1.0,4.693100000000015
46,3,0.5,100.0,-1.0,-1,1.0,0.93429900000001
47,3,0.5,50.0,-1.0,-1,1.0,1.070600000000013
48,3,0.5,100.0,-1.0,-1,1.0,0.39299999999997226
49,3,0.5,50.0,-1.0,-1,1.0,1.709999000000039
50,3,0.5,50.0,-1.0,-1,1.0,2.8462000000000103
51,3,0.5,50.0,1.0,-1,0.0,1.2423989999999776
52,3,0.3,50.0,1.0,-1,0.0,0.2255999999999858
53,3,0.2,50.0,1.0,1,1.0,6.36099999999999
54,3,0.5,100.0,1.0,1,1.0,9.079098999999985
55,3,0.5,50.0,-1.0,-1,1.0,0.2016999999999598
56,3,0.5,100.0,-1.0,-1,1.0,2.9705999999999904
57,3,0.5,100.0,-1.0,-1,1.0,1.5264999999999986
58,3,0.5,100.0,1.0,-1,0.0,3.928699999999992
59,3,0.2,100.0,-1.0,-1,1.0,5.7631999999999834
60,3,0.5,50.0,-1.0,-1,1.0,3.1626999999999725
61,3,0.5,50.0,1.0,-1,0.0,2.7063989999999194
62,3,0.2,50.0,1.0,1,1.0,1.7719000000000165
63,3,0.5,100.0,1.0,-1,0.0,2.6561999999999557
64,3,0.2,100.0,-1.0,-1,1.0,4.885599999999954
65,3,0.5,100.0,1.0,1,1.0,3.2695999999999117
66,3,0.5,50.0,1.0,-1,0.0,3.6177999999999884
67,3,0.2,50.0,-1.0,1,0.0,0.487700000000018
68,3,0.3,50.0,1.0,1,1.0,4.727798999999948
69,3,0.5,50.0,-1.0,-1,1.0,4.323500000000024
70,3,0.5,50.0,1.0,-1,0.0,4.376799999999946
71,3,0.4,50.0,1.0,1,1.0,6.721299999999928
72,3,0.5,50.0,1.0,1,1.0,6.24539900000002
73,3,0.5,100.0,-1.0,-1,1.0,3.2365990000000693
74,3,0.5,50.0,1.0,-1,0.0,3.896998999999937
75,3,0.5,50.0,-1.0,-1,1.0,3.546799999999962
76,3,0.5,100.0,1.0,-1,0.0,4.859698999999978
77,3,0.4,100.0,1.0,1,1.0,6.94319900000005
78,3,0.5,100.0,1.0,1,1.0,6.336300000000051
79,3,0.5,100.0,-1.0,-1,1.0,0.4606989999999769
80,3,0.5,50.0,1.0,1,1.0,0.518999000000008
81,3,0.5,50.0,1.0,-1,0.0,2.3661989999999378
82,3,0.4,50.0,-1.0,-1,1.0,1.4923000000000002
83,3,0.5,50.0,1.0,1,1.0,4.73090000000002
84,3,0.5,50.0,1.0,1,1.0,7.74249999999995
85,3,0.5,100.0,-1.0,-1,1.0,6.6965999999999894
86,3,0.5,50.0,-1.0,-1,1.0,2.696099000000004
87,3,0.5,50.0,-1.0,-1,1.0,6.436599999999885
88,3,0.5,100.0,-1.0,-1,1.0,0.48890000000005784
89,3,0.5,50.0,-1.0,-1,1.0,0.6845999999999322
90,3,0.5,50.0,1.0,1,1.0,1.6064999999999827
91,3,0.5,50.0,1.0,1,1.0,2.390600000000063
92,3,0.5,50.0,1.0,1,1.0,0.9012000000000171
93,3,0.5,50.0,1.0,-1,0.0,1.970399000000043
94,3,0.4,50.0,1.0,-1,0.0,2.409898999999882
95,3,0.3,50.0,1.0,-1,0.0,2.018599999999992
96,3,0.3,50.0,1.0,1,1.0,3.4821000000000595
97,3,0.5,50.0,-1.0,-1,1.0,3.207499999999982
98,3,0.5,50.0,-1.0,-1,1.0,3.323199000000045
99,3,0.5,50.0,-1.0,-1,1.0,4.1240999999999985
100,3,0.5,50.0,-1.0,-1,1.0,5.509500000000003
101,3,0.5,100.0,-1.0,-1,1.0,0.5378000000000611
102,3,0.5,50.0,1.0,-1,0.0,3.1826999999999543
103,3,0.1,50.0,1.0,-1,0.0,4.053299000000038
104,3,0.1,50.0,1.0,-1,0.0,3.61429899999996
105,3,0.1,50.0,-1.0,-1,1.0,3.84820000000002
106,3,0.5,50.0,1.0,1,1.0,3.537198999999987
107,3,0.5,50.0,-1.0,-1,1.0,4.3824990000000525
108,3,0.5,50.0,1.0,-1,0.0,6.716299999999933
109,3,0.1,50.0,1.0,-1,0.0,9.177198999999973
110,3,0.1,50.0,1.0,1,1.0,7.493299000000093
111,3,0.5,50.0,1.0,1,1.0,15.08929999999998
112,3,0.5,100.0,1.0,-1,0.0,2.7857989999999972
113,3,0.3,100.0,1.0,1,1.0,5.249699999999962
114,3,0.5,100.0,1.0,1,1.0,3.379199999999969
115,3,0.5,100.0,-1.0,-1,1.0,5.958599999999933
116,3,0.5,100.0,-1.0,-1,1.0,4.883599999999888
117,3,0.5,100.0,1.0,-1,0.0,4.7917999999999665
118,3,0.4,100.0,1.0,1,1.0,4.224000000000046
119,3,0.5,50.0,-1.0,-1,1.0,4.347699999999918
120,3,0.5,50.0,1.0,-1,0.0,5.840100000000007
121,3,0.4,50.0,1.0,1,1.0,5.181299999999965
122,3,0.5,50.0,1.0,1,1.0,4.106600000000071
123,3,0.5,100.0,-1.0,-1,1.0,3.874599999999873
124,3,0.5,100.0,-1.0,1,0.0,0.328899999999976
125,3,0.4,100.0,1.0,1,1.0,4.069700000000012
126,3,0.5,50.0,1.0,-1,0.0,1.519900000000007
127,3,0.5,50.0,1.0,1,1.0,1.5942000000000007
128,3,0.5,100.0,-1.0,-1,1.0,7.409099999999967
129,3,0.5,50.0,-1.0,-1,1.0,4.038898999999901
130,3,0.5,50.0,1.0,-1,0.0,5.453000000000088
131,3,0.5,50.0,1.0,1,1.0,9.669999999999959
132,3,0.5,100.0,-1.0,-1,1.0,7.424800000000005
133,3,0.5,100.0,-1.0,-1,1.0,5.2784999999998945
134,3,0.5,100.0,1.0,1,1.0,3.402798999999959
135,3,0.5,100.0,1.0,-1,0.0,3.0591000000000577
136,3,0.3,100.0,-1.0,-1,1.0,0.9593999999999596
137,3,0.5,100.0,-1.0,1,0.0,6.4846
138,3,0.3,100.0,1.0,-1,0.0,2.751999000000069
139,3,0.3,100.0,1.0,1,1.0,2.1078990000000886
140,3,0.5,100.0,1.0,-1,0.0,10.084998999999925
141,3,0.4,100.0,1.0,1,1.0,4.700698999999986
142,3,0.5,100.0,1.0,-1,0.0,5.501000000000204
143,3,0.4,100.0,1.0,1,1.0,2.859499999999798
144,3,0.5,50.0,1.0,1,1.0,3.2801990000000387
145,3,0.5,50.0,1.0,-1,0.0,3.240600000000086
146,3,0.5,50.0,1.0,1,1.0,0.8454000000001543
147,3,0.5,50.0,1.0,-1,0.0,3.197700000000168
148,3,0.5,50.0,1.0,1,1.0,1.4958990000000085
149,3,0.5,50.0,-1.0,1,0.0,6.261398999999983
150,3,0.6,50.0,1.0,1,1.0,1.3084989999999834
151,3,0.5,50.0,1.0,1,1.0,6.5043000000000575
152,3,0.5,100.0,-1.0,-1,1.0,5.7642000000000735
153,3,0.5,50.0,1.0,1,1.0,5.008199999999988
154,3,0.5,100.0,-1.0,-1,1.0,8.112699999999904
155,3,0.5,100.0,-1.0,1,0.0,0.7763989999998557
156,3,0.7,100.0,1.0,-1,0.0,2.641699000000017
157,3,0.6,100.0,-1.0,1,0.0,2.74330000000009
158,3,0.7,100.0,1.0,1,1.0,2.568298999999797
159,3,0.5,50.0,-1.0,-1,1.0,0.38699899999983245
160,3,0.5,100.0,-1.0,-1,1.0,0.3296989999998914
161,3,0.5,100.0,1.0,-1,0.0,3.3685989999999038
162,3,0.4,100.0,1.0,1,1.0,6.679599999999937
163,3,0.5,100.0,-1.0,-1,1.0,0.41030000000000655
164,3,0.5,100.0,-1.0,-1,1.0,4.6054989999997815
165,3,0.5,50.0,-1.0,-1,1.0,2.7967000000001008
166,3,0.5,50.0,1.0,1,1.0,9.371600000000171
167,3,0.5,100.0,1.0,1,1.0,0.6682989999999336
168,3,0.5,50.0,1.0,-1,0.0,6.287399999999934
169,3,0.3,50.0,-1.0,-1,1.0,8.457998999999973
170,3,0.5,100.0,1.0,-1,0.0,12.593399999999974
171,3,0.3,100.0,1.0,1,1.0,5.978800000000092
172,3,0.5,50.0,-1.0,1,0.0,2.91599999999994
173,3,0.4,50.0,-1.0,1,0.0,3.7976000000001022
174,3,0.5,50.0,1.0,-1,0.0,2.405599999999822
175,3,0.5,50.0,1.0,1,1.0,6.613998999999922
176,3,0.5,50.0,-1.0,1,0.0,0.2946999999999207
177,3,0.6,50.0,-1.0,-1,1.0,7.0402990000000045
178,3,0.5,100.0,-1.0,1,0.0,1.6375000000000455
179,3,0.6,100.0,-1.0,-1,1.0,5.229999000000134
180,3,0.5,100.0,1.0,1,1.0,6.871298999999908
181,3,0.5,50.0,1.0,-1,0.0,10.77189999999996
182,3,0.6,50.0,1.0,1,1.0,19.690999000000147
183,3,0.5,100.0,1.0,1,1.0,7.516998999999942
184,3,0.5,100.0,1.0,1,1.0,0.40089899999998124
185,3,0.5,100.0,-1.0,1,0.0,13.440399999999954
186,3,0.7,100.0,-1.0,1,0.0,8.114900000000262
187,3,0.7,100.0,-1.0,1,0.0,5.194999999999936
188,3,0.8,100.0,-1.0,-1,1.0,0.5624989999998888
189,3,0.5,50.0,-1.0,-1,1.0,16.267998999999918
190,3,0.5,50.0,-1.0,-1,1.0,32.098299000000225
191,3,0.5,100.0,1.0,1,1.0,8.86999999999989
192,3,0.5,50.0,1.0,-1,0.0,1.1061990000000606
193,3,0.6,50.0,1.0,-1,0.0,7.538299999999936
194,3,0.5,50.0,1.0,1,1.0,14.48519999999985
195,3,0.5,100.0,1.0,1,1.0,14.795699999999897
196,3,0.5,50.0,-1.0,-1,1.0,8.59009900000001
197,3,0.5,100.0,1.0,1,1.0,8.2195999999999
198,3,0.5,100.0,1.0,-1,0.0,12.30689899999993
199,3,0.4,100.0,-1.0,-1,1.0,10.088698999999906
200,3,0.5,100.0,1.0,1,1.0,16.698399999999992
201,3,0.5,50.0,1.0,1,1.0,7.360400000000027
202,3,0.5,100.0,-1.0,-1,1.0,0.48440000000005057
203,3,0.5,50.0,1.0,-1,0.0,7.8592989999999645
204,3,0.5,50.0,1.0,1,1.0,1.5266999999998916
205,3,0.5,50.0,1.0,-1,0.0,8.024699000000055
206,3,0.4,50.0,1.0,1,1.0,11.130599999999959
207,3,0.5,50.0,1.0,1,1.0,0.32629899999983536
208,3,0.5,50.0,-1.0,1,0.0,0.8559000000000196
209,3,0.6,50.0,-1.0,-1,1.0,3.678500000000213
210,3,0.5,100.0,-1.0,-1,1.0,9.205499999999802
211,3,0.5,50.0,-1.0,-1,1.0,4.802298999999948
212,3,0.5,50.0,1.0,1,1.0,6.308700000000272
213,3,0.5,50.0,-1.0,-1,1.0,7.9087990000000445
214,3,0.5,100.0,1.0,-1,0.0,4.981399999999894
215,3,0.4,100.0,1.0,-1,0.0,0.46900000000005093
216,3,0.4,100.0,1.0,1,1.0,6.020698999999922
217,3,0.5,50.0,1.0,1,1.0,1.3649990000001253
218,3,0.5,50.0,1.0,1,1.0,3.9068999999999505
219,3,0.5,100.0,-1.0,-1,1.0,0.3448990000001686
220,3,0.5,100.0,-1.0,-1,1.0,0.44069899999999507
221,3,0.5,100.0,-1.0,-1,1.0,5.846399999999903
222,3,0.5,100.0,1.0,-1,0.0,11.849900000000162
223,3,0.3,100.0,1.0,-1,0.0,6.288698999999951
224,3,0.3,100.0,-1.0,1,0.0,0.6192999999998392
225,3,0.4,100.0,1.0,1,1.0,3.7781999999997424
226,3,0.5,50.0,-1.0,-1,1.0,7.389300000000048
227,3,0.5,100.0,-1.0,-1,1.0,8.198599000000058
228,3,0.5,100.0,1.0,1,1.0,0.2783990000000358
229,3,0.5,100.0,-1.0,-1,1.0,14.415999000000056
230,3,0.5,100.0,1.0,-1,0.0,9.270099000000073
231,3,0.3,100.0,1.0,1,1.0,10.642999000000145
232,3,0.5,50.0,1.0,1,1.0,7.772199999999884
233,3,0.5,100.0,-1.0,-1,1.0,0.8523000000000138
234,3,0.5,50.0,1.0,-1,0.0,0.5616000000002259
235,3,0.4,50.0,1.0,-1,0.0,5.380501000000095
236,3,0.3,50.0,1.0,1,1.0,3.014701000000059
237,3,0.5,100.0,1.0,-1,0.0,4.033100999999988
238,3,0.4,100.0,-1.0,1,0.0,0.7409999999999854
239,3,0.4,100.0,1.0,-1,0.0,1.4433000000001357
240,3,0.4,100.0,1.0,1,1.0,5.88130000000001
241,3,0.5,50.0,1.0,1,1.0,3.3284000000001015
242,3,0.5,100.0,-1.0,-1,1.0,2.609900999999809
243,3,0.5,50.0,-1.0,-1,1.0,0.3086009999999533
244,3,0.5,100.0,1.0,1,1.0,1.434501000000182
245,3,0.5,50.0,1.0,1,1.0,0.30320099999994454
246,3,0.5,50.0,1.0,-1,0.0,1.029100999999855
247,3,0.5,50.0,-1.0,-1,1.0,0.7113999999999123
248,3,0.5,100.0,1.0,-1,0.0,14.020500999999967
249,3,0.4,100.0,-1.0,1,0.0,2.7751009999999496
250,3,0.5,100.0,-1.0,-1,1.0,5.573199999999815
251,3,0.5,50.0,1.0,1,1.0,5.010699999999815
252,3,0.5,100.0,1.0,1,1.0,6.555000000000064
253,3,0.5,100.0,1.0,1,1.0,3.338799999999992
254,3,0.5,100.0,-1.0,1,0.0,3.779301000000032
255,3,0.6,100.0,-1.0,-1,1.0,3.1342000000001917
256,3,0.5,100.0,1.0,1,1.0,17.99170099999992
257,3,0.5,50.0,1.0,1,1.0,0.7023010000002614
258,3,0.5,50.0,1.0,1,1.0,3.0447010000002592
259,3,0.5,100.0,-1.0,1,0.0,3.266501000000517
260,3,0.8,100.0,-1.0,-1,1.0,10.551300000000083
261,3,0.5,50.0,1.0,1,1.0,27.023101000000224
262,3,0.5,50.0,-1.0,-1,1.0,20.909500000000662
263,3,0.5,100.0,1.0,1,1.0,0.5455999999999221
264,3,0.5,100.0,1.0,1,1.0,1.476600000000417
265,3,0.5,100.0,-1.0,-1,1.0,0.9223000000001775
266,3,0.5,100.0,1.0,1,1.0,1.404801000000134
267,3,0.5,100.0,-1.0,-1,1.0,0.7300000000000182
268,3,0.5,50.0,1.0,-1,0.0,8.709000000000287
269,3,0.5,50.0,1.0,1,1.0,35.001901000000544
270,3,0.5,100.0,1.0,-1,0.0,3.743300999999974
271,3,0.5,100.0,-1.0,1,0.0,4.40800100000024
272,3,0.5,100.0,1.0,1,1.0,1.409200999999939
273,3,0.5,50.0,-1.0,-1,1.0,11.654700000000048
274,3,0.5,100.0,1.0,1,1.0,18.766401000000315
275,3,0.5,100.0,1.0,1,1.0,12.4658000000004
276,3,0.5,50.0,1.0,1,1.0,14.994700000000194
277,3,0.5,100.0,1.0,1,1.0,0.14960000000019136
278,3,0.5,50.0,-1.0,-1,1.0,1.909001000000444
279,3,0.5,100.0,-1.0,-1,1.0,33.52689999999984
280,3,0.5,50.0,-1.0,-1,1.0,8.121401000000333
281,3,0.5,100.0,1.0,1,1.0,34.43050100000028
282,3,0.5,100.0,1.0,1,1.0,2.8557009999999536
283,3,0.5,100.0,1.0,1,1.0,12.0399010000001
284,3,0.5,50.0,1.0,1,1.0,0.4323010000002796
285,3,0.5,100.0,1.0,1,1.0,3.8513010000006034
286,3,0.5,50.0,-1.0,1,0.0,7.1062010000000555
287,3,0.7,50.0,-1.0,-1,1.0,0.3959010000003218
288,3,0.5,100.0,1.0,-1,0.0,0.4885010000002694
289,3,0.6,100.0,1.0,-1,0.0,9.254200999999739
290,3,0.6,100.0,-1.0,-1,1.0,5.23050000000012
291,3,0.5,100.0,1.0,-1,0.0,14.60719999999992
292,3,0.5,100.0,1.0,-1,0.0,11.49360100000058
293,3,0.4,100.0,1.0,1,1.0,4.642100999999911
294,3,0.5,50.0,1.0,1,1.0,4.440200000000004
295,3,0.5,50.0,-1.0,1,0.0,9.025101000000177
296,3,0.4,50.0,-1.0,-1,1.0,16.078001000000313
297,3,0.5,100.0,-1.0,-1,1.0,14.53490099999999
298,3,0.5,50.0,1.0,1,1.0,23.73540099999991
299,3,0.5,50.0,1.0,1,1.0,15.506601000000046
300,3,0.5,100.0,1.0,1,1.0,15.150601000000279
301,3,0.5,50.0,-1.0,1,0.0,2.9841010000004644
302,3,0.7,50.0,-1.0,-1,1.0,34.665701000000354
303,3,0.5,50.0,1.0,1,1.0,13.4333000000006
305,3,0.7,50.0,1.0,1,1.0,11.945001000000502
306,3,0.5,100.0,-1.0,-1,1.0,4.342800000000352
307,3,0.5,100.0,-1.0,-1,1.0,4.594400000000405
308,3,0.5,50.0,-1.0,-1,1.0,3.0489010000001144
309,3,0.5,100.0,-1.0,1,0.0,9.343901000000187
310,3,0.6,100.0,-1.0,1,0.0,34.0301000000004
311,3,0.6,100.0,1.0,1,1.0,1.0684009999999944
312,3,0.5,50.0,1.0,1,1.0,12.520900000000438
313,3,0.5,50.0,1.0,1,1.0,17.596599999999853
314,3,0.5,50.0,1.0,1,1.0,8.779200000000401
315,3,0.5,100.0,-1.0,-1,1.0,12.489201000000321
316,3,0.5,100.0,-1.0,1,0.0,2.9682999999999993
317,3,0.7,100.0,1.0,-1,0.0,10.322599999999966
318,3,0.7,100.0,1.0,1,1.0,6.578401000000213
319,3,0.5,50.0,1.0,1,1.0,46.556800000000294
320,3,0.5,50.0,-1.0,-1,1.0,3.4921000000003914
321,3,0.5,100.0,1.0,-1,0.0,1.6862010000004375
322,3,0.6,100.0,-1.0,1,0.0,17.891501000000517
1,4,0.5,100.0,-1.0,-1,1.0,0.8145999999999995
2,4,0.5,100.0,1.0,-1,0.0,2.098799999999999
3,4,0.8,100.0,-1.0,-1,1.0,0.5423999999999989
4,4,0.5,50.0,-1.0,-1,1.0,1.302301
5,4,0.5,100.0,-1.0,-1,1.0,1.9465009999999978
6,4,0.5,100.0,-1.0,-1,1.0,0.39729999999999777
7,4,0.5,100.0,1.0,-1,0.0,0.8151999999999973
8,4,0.3,100.0,1.0,-1,0.0,0.7897000000000034
9,4,0.2,100.0,1.0,1,1.0,2.9479009999999946
10,4,0.5,100.0,1.0,1,1.0,1.4255999999999958
11,4,0.5,50.0,-1.0,1,0.0,0.3873010000000008
12,4,0.3,50.0,1.0,1,1.0,0.23540100000000308
13,4,0.5,100.0,-1.0,-1,1.0,0.18889999999999674
14,4,0.5,50.0,-1.0,-1,1.0,2.0416999999999987
15,4,0.5,50.0,-1.0,1,0.0,2.1988000000000056
16,4,0.5,50.0,-1.0,1,0.0,0.8724010000000106
17,4,0.6,50.0,1.0,-1,0.0,0.5414000000000101
18,4,0.6,50.0,-1.0,1,0.0,0.2619010000000088
19,4,0.7,50.0,1.0,1,1.0,0.10910100000000966
20,4,0.5,50.0,-1.0,-1,1.0,0.7484000000000037
21,4,0.5,50.0,-1.0,-1,1.0,0.1550009999999986
22,4,0.5,50.0,1.0,1,1.0,3.1379010000000136
23,4,0.5,50.0,-1.0,-1,1.0,0.07410000000000139
24,4,0.5,100.0,1.0,-1,0.0,2.838300000000004
25,4,0.5,100.0,1.0,1,1.0,1.9632000000000147
26,4,0.5,50.0,-1.0,1,0.0,0.1759010000000103
27,4,0.5,50.0,1.0,1,1.0,0.05950100000002578
28,4,0.5,100.0,1.0,-1,0.0,2.5182999999999964
29,4,0.5,100.0,1.0,-1,0.0,0.8326009999999826
30,4,0.4,100.0,-1.0,-1,1.0,3.184800999999993
31,4,0.5,50.0,-1.0,1,0.0,0.2116010000000017
32,4,0.5,50.0,-1.0,-1,1.0,2.143201000000005
33,4,0.5,50.0,1.0,-1,0.0,0.6906009999999867
34,4,0.4,50.0,-1.0,-1,1.0,5.253601000000003
35,4,0.5,100.0,-1.0,-1,1.0,0.601399999999984
36,4,0.5,50.0,-1.0,-1,1.0,1.0776999999999646
37,4,0.5,100.0,1.0,1,1.0,1.0405999999999835
38,4,0.5,100.0,-1.0,-1,1.0,0.33860100000001125
39,4,0.5,50.0,1.0,-1,0.0,0.22350000000000136
40,4,0.2,50.0,1.0,-1,0.0,2.311101000000008
41,4,0.2,50.0,1.0,-1,0.0,0.1813009999999906
42,4,0.1,50.0,-1.0,1,0.0,5.824801000000008
43,4,0.2,50.0,1.0,1,1.0,0.5334999999999752
44,4,0.5,50.0,-1.0,-1,1.0,1.2727000000000146
45,4,0.5,100.0,-1.0,-1,1.0,4.048300000000012
46,4,0.5,50.0,1.0,-1,0.0,0.603999999999985
47,4,0.3,50.0,1.0,1,1.0,1.0255009999999913
48,4,0.5,100.0,1.0,1,1.0,0.8724000000000274
49,4,0.5,50.0,1.0,-1,0.0,2.0643010000000004
50,4,0.4,50.0,-1.0,-1,1.0,3.618100999999996
51,4,0.5,50.0,1.0,1,1.0,1.8369009999999832
52,4,0.5,50.0,-1.0,-1,1.0,1.8165010000000166
53,4,0.5,50.0,-1.0,-1,1.0,0.5900009999999725
54,4,0.5,50.0,-1.0,-1,1.0,0.5162009999999668
55,4,0.5,100.0,1.0,-1,0.0,0.2640999999999849
56,4,0.3,100.0,-1.0,-1,1.0,0.3565009999999802
57,4,0.5,50.0,-1.0,-1,1.0,0.75
58,4,0.5,50.0,-1.0,-1,1.0,0.2950999999999908
59,4,0.5,50.0,-1.0,-1,1.0,0.6656000000000404
60,4,0.5,50.0,-1.0,-1,1.0,0.6732000000000085
61,4,0.5,100.0,1.0,-1,0.0,0.5364010000000121
62,4,0.0,100.0,1.0,-1,0.0,-0.03919899999999643
63,4,0.0,100.0,1.0,-1,0.0,2.9483000000000743
64,4,0.0,100.0,1.0,1,1.0,2.5797999999999774
65,4,0.5,100.0,1.0,1,1.0,0.5419009999999957
66,4,0.5,100.0,-1.0,-1,1.0,0.4242999999999597
67,4,0.5,50.0,-1.0,-1,1.0,1.3335010000000125
68,4,0.5,100.0,1.0,-1,0.0,0.592501000000027
69,4,0.2,100.0,1.0,-1,0.0,1.0678000000000338
70,4,0.2,100.0,1.0,-1,0.0,2.3269000000000233
71,4,0.2,100.0,1.0,1,1.0,0.33499999999997954
72,4,0.5,100.0,1.0,-1,0.0,0.2655000000000314
73,4,0.3,100.0,-1.0,1,0.0,0.14600000000007185
74,4,0.4,100.0,1.0,-1,0.0,0.2137000000000171
75,4,0.3,100.0,-1.0,-1,1.0,3.2388010000000236
76,4,0.5,50.0,-1.0,-1,1.0,0.8559000000000765
77,4,0.5,50.0,-1.0,-1,1.0,4.014599999999973
78,4,0.5,50.0,1.0,-1,0.0,0.771000000000015
79,4,0.2,50.0,1.0,1,1.0,0.7118000000000393
80,4,0.5,50.0,1.0,1,1.0,0.42880000000002383
81,4,0.5,50.0,1.0,1,1.0,1.1238010000000713
82,4,0.5,50.0,-1.0,-1,1.0,0.6496010000000183
83,4,0.5,50.0,-1.0,-1,1.0,0.6754010000000221
84,4,0.5,100.0,-1.0,-1,1.0,0.41560100000003786
85,4,0.5,100.0,1.0,-1,0.0,0.6044000000000551
86,4,0.3,100.0,1.0,-1,0.0,3.496801000000005
87,4,0.3,100.0,1.0,-1,0.0,3.9478000000000293
88,4,0.3,100.0,-1.0,-1,1.0,0.6252010000000041
89,4,0.5,50.0,1.0,-1,0.0,0.43300100000004704
90,4,0.2,50.0,1.0,1,1.0,1.164000000000044
91,4,0.5,100.0,1.0,1,1.0,0.17340100000001257
92,4,0.5,100.0,-1.0,-1,1.0,6.149401000000012
93,4,0.5,100.0,1.0,-1,0.0,0.2289000000000101
94,4,0.2,100.0,-1.0,-1,1.0,3.273900000000026
95,4,0.5,100.0,1.0,-1,0.0,0.35770100000002003
96,4,0.2,100.0,1.0,-1,0.0,2.537899999999979
97,4,0.2,100.0,-1.0,-1,1.0,3.4092000000000553
98,4,0.5,100.0,1.0,1,1.0,2.060700000000054
99,4,0.5,100.0,1.0,-1,0.0,0.1065009999999802
100,4,0.3,100.0,1.0,-1,0.0,0.696200000000033
101,4,0.2,100.0,-1.0,-1,1.0,0.8187000000000353
102,4,0.5,50.0,1.0,-1,0.0,2.9393010000000004
103,4,0.1,50.0,-1.0,-1,1.0,6.795199999999966
104,4,0.5,100.0,1.0,1,1.0,0.3244009999999662
105,4,0.5,50.0,1.0,-1,0.0,0.4824999999999591
106,4,0.2,50.0,-1.0,-1,1.0,3.011099999999942
107,4,0.5,50.0,1.0,-1,0.0,0.5663009999999531
108,4,0.2,50.0,1.0,1,1.0,1.7231009999999287
109,4,0.5,100.0,1.0,-1,0.0,0.2361999999999398
110,4,0.2,100.0,-1.0,1,0.0,0.2336999999999989
111,4,0.3,100.0,1.0,-1,0.0,2.3360009999998965
112,4,0.3,100.0,1.0,-1,0.0,1.7007999999999583
113,4,0.3,100.0,1.0,-1,0.0,3.855399999999918
114,4,0.3,100.0,1.0,1,1.0,0.7113010000000486
115,4,0.5,50.0,1.0,-1,0.0,5.572500999999875
116,4,0.3,50.0,1.0,-1,0.0,0.4456009999998969
117,4,0.3,50.0,1.0,-1,0.0,2.1972999999999274
118,4,0.3,50.0,1.0,1,1.0,4.142100000000028
119,4,0.5,50.0,1.0,1,1.0,0.8357999999999493
120,4,0.5,50.0,-1.0,-1,1.0,1.3401009999998905
121,4,0.5,50.0,-1.0,-1,1.0,1.00970099999995
122,4,0.5,100.0,1.0,-1,0.0,0.25880100000006223
123,4,0.3,100.0,1.0,-1,0.0,2.1931999999999334
124,4,0.3,100.0,1.0,-1,0.0,4.203099999999836
125,4,0.2,100.0,1.0,-1,0.0,2.5349009999999907
126,4,0.2,100.0,1.0,1,1.0,4.290000999999961
127,4,0.5,100.0,1.0,-1,0.0,0.5837009999999054
128,4,0.3,100.0,1.0,-1,0.0,0.9857009999999491
129,4,0.2,100.0,1.0,-1,0.0,4.227301000000011
130,4,0.1,100.0,1.0,1,1.0,1.4258009999999786
131,4,0.5,100.0,1.0,-1,0.0,0.2514009999999871
132,4,0.2,100.0,1.0,1,1.0,2.5743999999999687
133,4,0.5,50.0,1.0,-1,0.0,0.14820099999997183
134,4,0.3,50.0,1.0,1,1.0,1.760801000000015
135,4,0.5,50.0,-1.0,-1,1.0,0.3237010000000282
136,4,0.5,50.0,1.0,1,1.0,4.776000999999951
137,4,0.5,50.0,1.0,1,1.0,3.819701000000009
138,4,0.5,50.0,1.0,-1,0.0,0.5998009999999567
139,4,0.5,50.0,-1.0,-1,1.0,0.40170100000000275
140,4,0.5,100.0,1.0,-1,0.0,2.889699999999948
141,4,0.4,100.0,1.0,1,1.0,2.69840099999999
142,4,0.5,50.0,1.0,1,1.0,0.9598999999999478
143,4,0.5,100.0,-1.0,1,0.0,0.4514010000000326
144,4,0.6,100.0,1.0,1,1.0,0.4874999999999545
145,4,0.5,100.0,-1.0,1,0.0,4.73599999999999
146,4,0.7,100.0,-1.0,1,0.0,1.652900999999929
147,4,0.7,100.0,-1.0,-1,1.0,1.2531999999999925
148,4,0.5,50.0,1.0,-1,0.0,0.28260099999999966
149,4,0.6,50.0,-1.0,-1,1.0,0.7272000000000389
150,4,0.5,50.0,-1.0,-1,1.0,0.7740999999999758
151,4,0.5,100.0,-1.0,-1,1.0,1.3475009999999656
152,4,0.5,50.0,-1.0,-1,1.0,2.4625009999999747
153,4,0.5,50.0,1.0,1,1.0,0.763101000000006
154,4,0.5,50.0,-1.0,-1,1.0,0.7170010000000957
155,4,0.5,100.0,-1.0,-1,1.0,2.8137009999999236
156,4,0.5,50.0,1.0,-1,0.0,4.41270099999997
157,4,0.1,50.0,-1.0,-1,1.0,0.9198999999999842
158,4,0.5,50.0,-1.0,-1,1.0,1.5266000000000304
159,4,0.5,100.0,1.0,1,1.0,2.159300999999914
160,4,0.5,100.0,-1.0,1,0.0,0.8833999999999378
161,4,0.3,100.0,1.0,-1,0.0,0.6112000000000535
162,4,0.3,100.0,-1.0,1,0.0,0.10350099999993745
163,4,0.4,100.0,-1.0,1,0.0,0.7855999999999312
164,4,0.4,100.0,1.0,-1,0.0,0.8141010000000506
165,4,0.4,100.0,-1.0,-1,1.0,0.7984000000000151
166,4,0.5,50.0,1.0,-1,0.0,0.12749999999994088
167,4,0.4,50.0,-1.0,-1,1.0,4.223700000000008
168,4,0.5,100.0,-1.0,-1,1.0,0.5171009999999114
169,4,0.5,100.0,1.0,-1,0.0,2.554800999999884
170,4,0.3,100.0,1.0,-1,0.0,4.247799999999984
171,4,0.2,100.0,1.0,1,1.0,3.674301000000014
172,4,0.5,100.0,1.0,1,1.0,0.9719000000001188
173,4,0.5,50.0,1.0,1,1.0,0.16280000000006112
174,4,0.5,50.0,1.0,-1,0.0,3.4856999999999516
175,4,0.3,50.0,1.0,1,1.0,4.850600999999983
176,4,0.5,50.0,1.0,1,1.0,1.8690000000000282
177,4,0.5,50.0,1.0,-1,0.0,0.3405009999999038
178,4,0.5,50.0,1.0,1,1.0,1.8996000000000777
179,4,0.5,100.0,-1.0,-1,1.0,0.04740100000003622
180,4,0.5,50.0,-1.0,-1,1.0,1.0016999999999143
181,4,0.5,50.0,1.0,1,1.0,0.284099999999853
182,4,0.5,50.0,-1.0,-1,1.0,2.296000999999933
183,4,0.5,100.0,1.0,-1,0.0,4.845199999999977
184,4,0.4,100.0,1.0,1,1.0,4.279899999999884
185,4,0.5,50.0,1.0,-1,0.0,0.6316009999999324
186,4,0.4,50.0,-1.0,1,0.0,1.0085010000000239
187,4,0.4,50.0,-1.0,1,0.0,0.6358010000000149
188,4,0.5,50.0,1.0,-1,0.0,0.2576000000000249
189,4,0.4,50.0,1.0,-1,0.0,2.7453009999999267
190,4,0.4,50.0,1.0,1,1.0,6.539400999999998
191,4,0.5,100.0,-1.0,-1,1.0,3.4157999999998765
192,4,0.5,50.0,1.0,-1,0.0,0.4873009999998885
193,4,0.4,50.0,1.0,-1,0.0,2.9322010000000773
194,4,0.4,50.0,1.0,1,1.0,0.1995999999999185
195,4,0.5,50.0,-1.0,-1,1.0,1.455699999999979
196,4,0.5,50.0,1.0,1,1.0,0.394600999999966
197,4,0.5,50.0,-1.0,-1,1.0,0.8904010000001108
198,4,0.5,50.0,-1.0,1,0.0,2.5792999999998756
199,4,0.4,50.0,1.0,1,1.0,1.1242999999999483
200,4,0.5,100.0,1.0,-1,0.0,2.2797000000002754
201,4,0.4,100.0,-1.0,-1,1.0,0.29490099999998165
202,4,0.5,100.0,-1.0,-1,1.0,0.27080000000000837
203,4,0.5,100.0,1.0,-1,0.0,0.5092000000001917
204,4,0.4,100.0,1.0,-1,0.0,0.7349000000001524
205,4,0.3,100.0,1.0,-1,0.0,2.5670010000001184
206,4,0.3,100.0,1.0,1,1.0,0.3784009999999398
207,4,0.5,50.0,1.0,1,1.0,4.83360000000016
208,4,0.5,100.0,-1.0,-1,1.0,0.431400000000167
209,4,0.5,50.0,-1.0,-1,1.0,3.9913010000000213
210,4,0.5,100.0,1.0,-1,0.0,4.667999999999893
211,4,0.2,100.0,1.0,-1,0.0,8.41550099999995
212,4,0.2,100.0,1.0,1,1.0,6.064701000000014
213,4,0.5,50.0,1.0,1,1.0,0.14819999999986067
214,4,0.5,100.0,-1.0,-1,1.0,0.4767010000000482
215,4,0.5,50.0,1.0,1,1.0,3.0914009999999053
216,4,0.5,50.0,1.0,1,1.0,1.848799999999983
217,4,0.5,100.0,-1.0,1,0.0,4.259600000000091
218,4,0.5,100.0,1.0,1,1.0,1.4806999999998425
219,4,0.5,100.0,1.0,1,1.0,9.424800000000005
220,4,0.5,50.0,-1.0,1,0.0,4.450000999999929
221,4,0.8,50.0,1.0,1,1.0,0.3141009999999369
222,4,0.5,100.0,-1.0,1,0.0,4.515300000000252
223,4,0.9,100.0,-1.0,-1,1.0,1.1864000000000487
224,4,0.5,100.0,-1.0,-1,1.0,5.280301000000009
225,4,0.5,100.0,-1.0,1,0.0,0.18090000000006512
226,4,0.8,100.0,1.0,1,1.0,0.1794999999999618
227,4,0.5,100.0,1.0,-1,0.0,4.767700000000104
228,4,0.7,100.0,-1.0,-1,1.0,4.015200999999934
229,4,0.5,100.0,-1.0,-1,1.0,0.32630100000028506
230,4,0.5,50.0,1.0,-1,0.0,0.7056000000002314
231,4,0.4,50.0,-1.0,-1,1.0,1.1628010000001723
232,4,0.5,100.0,1.0,1,1.0,1.8569010000003345
233,4,0.5,100.0,-1.0,1,0.0,1.8782000000001062
234,4,0.4,100.0,1.0,1,1.0,2.7001000000000204
235,4,0.5,50.0,-1.0,1,0.0,6.383900999999923
236,4,0.5,50.0,1.0,1,1.0,5.86420000000021
237,4,0.5,100.0,1.0,1,1.0,0.17740100000014536
238,4,0.5,50.0,-1.0,-1,1.0,1.2135010000001785
239,4,0.5,100.0,-1.0,-1,1.0,0.6011000000000877
240,4,0.5,50.0,-1.0,-1,1.0,0.2836000000002059
241,4,0.5,100.0,1.0,-1,0.0,0.7996000000000549
242,4,0.6,100.0,1.0,1,1.0,1.751700000000028
243,4,0.5,100.0,-1.0,-1,1.0,0.13800100000003113
244,4,0.5,100.0,1.0,-1,0.0,0.47250099999996564
245,4,0.4,100.0,-1.0,-1,1.0,2.0580009999998765
246,4,0.5,50.0,1.0,-1,0.0,6.1426000000001295
247,4,0.2,50.0,1.0,1,1.0,4.352899999999863
248,4,0.5,100.0,1.0,1,1.0,0.3271010000003116
249,4,0.5,100.0,-1.0,-1,1.0,1.3898000000001502
250,4,0.5,50.0,-1.0,1,0.0,0.6683000000000447
251,4,0.4,50.0,1.0,1,1.0,5.588701000000128
252,4,0.5,50.0,1.0,1,1.0,2.7392999999999574
253,4,0.5,100.0,1.0,1,1.0,0.2742000000000644
254,4,0.5,50.0,-1.0,-1,1.0,0.539801000000125
255,4,0.5,100.0,1.0,1,1.0,0.3088999999999942
256,4,0.5,50.0,-1.0,-1,1.0,0.43470000000002074
257,4,0.5,50.0,1.0,1,1.0,5.717100000000073
258,4,0.5,100.0,1.0,1,1.0,2.996601000000055
259,4,0.5,100.0,-1.0,1,0.0,5.2906010000001515
260,4,0.8,100.0,1.0,1,1.0,1.1347010000001774
261,4,0.5,50.0,-1.0,1,0.0,0.15009999999983847
262,4,0.8,50.0,1.0,1,1.0,8.341001000000006
263,4,0.5,50.0,-1.0,1,0.0,1.1065000000000964
264,4,0.8,50.0,-1.0,1,0.0,2.2286000000001422
265,4,0.9,50.0,-1.0,1,0.0,1.870300000000043
266,4,0.9,50.0,-1.0,-1,1.0,4.905599999999822
267,4,0.5,50.0,-1.0,1,0.0,0.08639999999991232
268,4,0.9,50.0,-1.0,1,0.0,0.4955000000002201
269,4,0.9,50.0,1.0,-1,0.0,0.7477010000000064
270,4,0.8,50.0,-1.0,-1,1.0,6.7062009999999646
271,4,0.5,100.0,-1.0,-1,1.0,5.036101000000144
272,4,0.5,50.0,1.0,1,1.0,0.15300000000002
273,4,0.5,100.0,-1.0,-1,1.0,0.2881000000002132
274,4,0.5,50.0,-1.0,1,0.0,0.2672000000002299
275,4,0.5,50.0,1.0,1,1.0,9.002901000000293
276,4,0.5,100.0,1.0,1,1.0,7.282801000000063
277,4,0.5,100.0,1.0,-1,0.0,0.38570000000004256
278,4,0.5,100.0,-1.0,-1,1.0,4.831200000000081
279,4,0.5,100.0,1.0,1,1.0,2.2345009999999093
280,4,0.5,50.0,1.0,1,1.0,0.4067000000000007
281,4,0.5,50.0,-1.0,-1,1.0,0.564701000000241
282,4,0.5,100.0,-1.0,-1,1.0,9.826201000000083
283,4,0.5,50.0,1.0,1,1.0,0.3087000000000444
284,4,0.5,50.0,-1.0,-1,1.0,1.1473000000000866
285,4,0.5,50.0,1.0,1,1.0,5.6055009999997765
286,4,0.5,100.0,-1.0,-1,1.0,9.638000000000147
287,4,0.5,100.0,1.0,-1,0.0,7.906901000000062
288,4,0.4,100.0,1.0,1,1.0,7.003101000000015
289,4,0.5,100.0,1.0,1,1.0,0.08680000000003929
290,4,0.5,50.0,1.0,1,1.0,0.3628000000001066
291,4,0.5,50.0,1.0,1,1.0,1.354101000000128
292,4,0.5,100.0,-1.0,-1,1.0,0.3526000000001659
293,4,0.5,100.0,1.0,1,1.0,5.127500999999938
294,4,0.5,100.0,-1.0,1,0.0,6.053900000000112
295,4,0.7,100.0,-1.0,1,0.0,4.666501000000153
296,4,0.7,100.0,-1.0,-1,1.0,5.370701000000054
297,4,0.5,50.0,-1.0,-1,1.0,1.9537000000000262
298,4,0.5,100.0,-1.0,-1,1.0,10.080401000000165
299,4,0.5,100.0,1.0,-1,0.0,2.3915000000001783
300,4,0.5,100.0,-1.0,-1,1.0,2.8397010000001046
301,4,0.5,100.0,1.0,1,1.0,3.203901000000087
302,4,0.5,50.0,-1.0,-1,1.0,7.287401000000273
303,4,0.5,50.0,-1.0,-1,1.0,2.570701000000099
304,4,0.5,50.0,1.0,1,1.0,6.162201000000323
305,4,0.5,100.0,-1.0,-1,1.0,0.3158000000000811
306,4,0.5,50.0,-1.0,-1,1.0,1.6783009999999194
307,4,0.5,50.0,-1.0,1,0.0,6.358400000000074
308,4,0.3,50.0,-1.0,-1,1.0,7.015599999999949
309,4,0.5,100.0,1.0,1,1.0,9.641900000000078
310,4,0.5,100.0,1.0,1,1.0,6.614001000000144
311,4,0.5,50.0,1.0,1,1.0,2.84030000000007
312,4,0.5,100.0,-1.0,-1,1.0,4.2853000000000065
313,4,0.5,50.0,1.0,1,1.0,26.469201000000112
314,4,0.5,100.0,1.0,-1,0.0,0.3869000000001961
315,4,0.5,100.0,-1.0,1,0.0,2.5457010000002356
316,4,0.6,100.0,1.0,1,1.0,12.340601000000106
317,4,0.5,50.0,1.0,1,1.0,4.341599999999971
318,4,0.5,100.0,-1.0,1,0.0,6.821200999999974
319,4,0.8,100.0,1.0,1,1.0,9.128099999999904
320,4,0.5,100.0,-1.0,1,0.0,5.929600000000164
321,4,0.8,100.0,-1.0,-1,1.0,4.223600000000033
322,4,0.5,50.0,1.0,1,1.0,5.3442009999998845
323,4,0.5,50.0,1.0,1,1.0,1.0219010000000708
324,4,0.5,50.0,1.0,1,1.0,4.137700000000223
325,4,0.5,50.0,1.0,1,1.0,5.760700999999926
326,4,0.5,100.0,1.0,1,1.0,8.184500999999727
327,4,0.5,50.0,1.0,1,1.0,1.8133009999992282
328,4,0.5,100.0,-1.0,1,0.0,2.3755009999999857
329,4,0.9,100.0,1.0,1,1.0,18.850500999999895
330,4,0.5,100.0,-1.0,1,0.0,2.096299999999701
331,4,0.9,100.0,-1.0,1,0.0,9.001100999999835
332,4,1.0,100.0,-1.0,1,0.0,4.514100999999755
333,4,1.0,100.0,-1.0,1,0.0,13.061799999999494
334,4,1.0,100.0,-1.0,-1,1.0,8.933500999999978
335,4,0.5,50.0,-1.0,1,0.0,6.059100999999828
336,4,0.9,50.0,1.0,1,1.0,11.5929000000001
337,4,0.5,100.0,1.0,1,1.0,1.205500000000029
338,4,0.5,50.0,-1.0,-1,1.0,7.033400000000256
339,4,0.5,50.0,-1.0,1,0.0,10.132900999999947
340,4,0.8,50.0,-1.0,1,0.0,15.594900000000052
341,4,0.8,50.0,-1.0,-1,1.0,8.559199999999691
342,4,0.5,100.0,-1.0,-1,1.0,19.051900000000387
343,4,0.5,50.0,-1.0,-1,1.0,17.23490099999981
344,4,0.5,50.0,1.0,1,1.0,0.5457010000000082
345,4,0.5,100.0,1.0,1,1.0,0.35099999999965803
346,4,0.5,100.0,1.0,1,1.0,9.228501000000051
347,4,0.5,50.0,-1.0,1,0.0,6.124401000000034
348,4,0.6,50.0,1.0,1,1.0,4.931399999999485
349,4,0.5,50.0,1.0,1,1.0,7.112599999999475
350,4,0.5,50.0,1.0,1,1.0,10.625301000000036
351,4,0.5,100.0,1.0,1,1.0,8.044300000000021
352,4,0.5,100.0,-1.0,-1,1.0,4.650301000000127
353,4,0.5,100.0,-1.0,-1,1.0,11.744600999999875
354,4,0.5,50.0,-1.0,-1,1.0,1.0871010000000751
355,4,0.5,100.0,1.0,1,1.0,12.49850000000015
356,4,0.5,100.0,-1.0,-1,1.0,0.06690100000014354
357,4,0.5,100.0,-1.0,-1,1.0,0.5160000000000764
358,4,0.5,50.0,1.0,1,1.0,9.553501000000324
359,4,0.5,50.0,1.0,-1,0.0,0.219101000000137
360,4,0.4,50.0,1.0,1,1.0,13.31479999999965
361,4,0.5,100.0,1.0,1,1.0,2.548800999999912
362,4,0.5,50.0,1.0,-1,0.0,2.9004009999998743
363,4,0.4,50.0,-1.0,1,0.0,4.6786010000000715
364,4,0.5,50.0,-1.0,-1,1.0,1.769600999999966
365,4,0.5,100.0,1.0,1,1.0,4.291000999999596
366,4,0.5,50.0,1.0,1,1.0,17.42240099999981
367,4,0.5,50.0,-1.0,-1,1.0,0.653100999999424
368,4,0.5,100.0,-1.0,1,0.0,16.354999999999563
369,4,0.6,100.0,-1.0,1,0.0,55.24200099999962
370,4,0.7,100.0,-1.0,-1,1.0,13.084101000000373
371,4,0.5,50.0,-1.0,-1,1.0,1.1624010000000453
372,4,0.5,100.0,-1.0,-1,1.0,0.5113019999994322
373,4,0.5,50.0,1.0,1,1.0,2.8791019999998753
374,4,0.5,50.0,-1.0,1,0.0,3.6442010000000664
375,4,0.6,50.0,-1.0,-1,1.0,2.8855020000000877
376,4,0.5,100.0,1.0,1,1.0,8.416602000000239
377,4,0.5,50.0,1.0,1,1.0,6.92000199999984
378,4,0.5,50.0,1.0,-1,0.0,0.5233010000001741
379,4,0.5,50.0,1.0,1,1.0,9.091801999999461
380,4,0.5,50.0,1.0,1,1.0,6.60410199999933
381,4,0.5,100.0,-1.0,1,0.0,0.6348009999996975
382,4,0.7,100.0,-1.0,1,0.0,25.613600999999562
1,5,0.5,50.0,-1.0,-1,1.0,13.7224
2,5,0.5,50.0,-1.0,-1,1.0,4.574301000000002
3,5,0.5,100.0,1.0,-1,0.0,0.8290000000000006
4,5,0.7,100.0,-1.0,-1,1.0,3.354401000000003
5,5,0.5,50.0,1.0,-1,0.0,4.654001000000001
6,5,0.5,50.0,-1.0,-1,1.0,2.775199999999998
7,5,0.5,50.0,1.0,-1,0.0,0.11500000000000199
8,5,0.3,50.0,1.0,-1,0.0,2.0296009999999995
9,5,0.2,50.0,1.0,-1,0.0,0.17440000000000566
10,5,0.1,50.0,1.0,1,1.0,1.920301000000002
11,5,0.5,100.0,1.0,-1,0.0,1.8302010000000024
12,5,0.1,100.0,-1.0,-1,1.0,2.4657000000000124
13,5,0.5,50.0,1.0,-1,0.0,8.50580100000002
14,5,0.1,50.0,1.0,1,1.0,4.331599999999995
15,5,0.5,50.0,1.0,1,1.0,0.254099999999994
16,5,0.5,100.0,1.0,1,1.0,0.08580099999998936
17,5,0.5,50.0,1.0,1,1.0,0.5106010000000083
18,5,0.5,50.0,-1.0,1,0.0,0.885901000000004
19,5,0.6,50.0,1.0,1,1.0,0.6563000000000017
20,5,0.5,100.0,-1.0,-1,1.0,2.438200000000009
21,5,0.5,50.0,1.0,1,1.0,1.5752999999999986
22,5,0.5,100.0,-1.0,-1,1.0,0.5020009999999928
23,5,0.5,100.0,1.0,1,1.0,3.325501000000017
24,5,0.5,50.0,1.0,1,1.0,0.29540099999999825
25,5,0.5,100.0,-1.0,-1,1.0,2.7161009999999806
26,5,0.5,100.0,1.0,-1,0.0,3.2376999999999896
27,5,0.6,100.0,-1.0,1,0.0,2.0488009999999974
28,5,0.6,100.0,-1.0,1,0.0,2.7312009999999702
29,5,0.6,100.0,-1.0,-1,1.0,0.2618009999999913
30,5,0.5,100.0,1.0,1,1.0,3.1782010000000014
31,5,0.5,50.0,-1.0,1,0.0,3.1684009999999887
32,5,0.6,50.0,-1.0,1,0.0,4.277800000000013
33,5,0.7,50.0,-1.0,-1,1.0,0.45380099999997014
34,5,0.5,100.0,1.0,1,1.0,0.21189999999998577
35,5,0.5,100.0,-1.0,-1,1.0,0.3661999999999921
36,5,0.5,50.0,-1.0,1,0.0,1.5150999999999897
37,5,0.7,50.0,1.0,-1,0.0,2.782199999999989
38,5,0.6,50.0,-1.0,-1,1.0,0.8928009999999915
39,5,0.5,50.0,1.0,1,1.0,2.5834999999999866
40,5,0.5,50.0,-1.0,-1,1.0,0.5866000000000042
41,5,0.5,100.0,1.0,1,1.0,0.158600999999976
42,5,0.5,50.0,1.0,-1,0.0,2.217599999999976
43,5,0.4,50.0,1.0,1,1.0,0.922600999999986
44,5,0.5,50.0,1.0,1,1.0,2.6636009999999715
45,5,0.5,50.0,-1.0,-1,1.0,0.43630099999998606
46,5,0.5,100.0,1.0,-1,0.0,3.3101000000000056
47,5,0.4,100.0,1.0,1,1.0,0.36309999999997444
48,5,0.5,100.0,1.0,1,1.0,2.9656009999999924
49,5,0.5,50.0,-1.0,1,0.0,3.2006000000000085
50,5,0.6,50.0,-1.0,1,0.0,1.0810010000000148
51,5,0.7,50.0,-1.0,1,0.0,2.7999999999999545
52,5,0.7,50.0,-1.0,1,0.0,3.1138009999999667
53,5,0.8,50.0,1.0,1,1.0,3.2046009999999683
54,5,0.5,100.0,1.0,1,1.0,0.8259009999999307
55,5,0.5,50.0,-1.0,-1,1.0,0.7031010000000038
56,5,0.5,50.0,-1.0,-1,1.0,0.5062999999999533
57,5,0.5,50.0,-1.0,-1,1.0,0.6050999999999362
58,5,0.5,100.0,1.0,1,1.0,3.4605999999999995
59,5,0.5,100.0,1.0,-1,0.0,0.5997009999999818
60,5,0.6,100.0,-1.0,-1,1.0,0.5293009999999754
61,5,0.5,50.0,1.0,1,1.0,2.9678009999999517
62,5,0.5,50.0,1.0,1,1.0,2.299201000000039
63,5,0.5,50.0,-1.0,1,0.0,2.4371999999999616
64,5,0.5,50.0,1.0,1,1.0,3.854200999999989
65,5,0.5,50.0,1.0,1,1.0,4.769800999999973
66,5,0.5,50.0,-1.0,1,0.0,1.5937999999999874
67,5,0.7,50.0,1.0,1,1.0,0.5733999999999924
68,5,0.5,100.0,-1.0,1,0.0,3.3260999999999967
69,5,0.8,100.0,1.0,1,1.0,0.6976009999999633
70,5,0.5,50.0,-1.0,1,0.0,2.6325009999999907
71,5,1.0,50.0,-1.0,1,0.0,1.5090000000000146
72,5,1.0,50.0,1.0,1,1.0,0.5437999999999761
73,5,0.5,50.0,-1.0,1,0.0,2.550500999999997
74,5,1.0,50.0,-1.0,1,0.0,2.2228000000000065
75,5,1.0,50.0,-1.0,1,0.0,1.9517010000000141
76,5,1.0,50.0,-1.0,1,0.0,1.782500999999968
77,5,1.0,50.0,-1.0,1,0.0,4.045700999999951
78,5,1.0,50.0,1.0,1,1.0,0.28449999999998
79,5,0.5,100.0,-1.0,1,0.0,2.0278999999999314
80,5,1.0,100.0,-1.0,1,0.0,2.26010100000002
81,5,1.0,100.0,-1.0,-1,1.0,3.2939009999999485
82,5,0.5,50.0,-1.0,-1,1.0,2.066201000000035
83,5,0.5,100.0,-1.0,-1,1.0,3.387000999999941
84,5,0.5,50.0,-1.0,-1,1.0,3.0169010000000185
85,5,0.5,50.0,-1.0,-1,1.0,2.7679999999999723
86,5,0.5,50.0,-1.0,-1,1.0,3.5833999999999833
87,5,0.5,50.0,-1.0,-1,1.0,3.372901000000013
88,5,0.5,100.0,1.0,-1,0.0,0.5443009999999617
89,5,0.2,100.0,1.0,-1,0.0,1.8497009999999818
90,5,0.1,100.0,-1.0,-1,1.0,2.456600999999978
91,5,0.5,100.0,1.0,-1,0.0,3.890301000000022
92,5,0.0,100.0,-1.0,1,0.0,2.772901000000161
93,5,0.1,100.0,1.0,-1,0.0,0.2581000000001268
94,5,0.1,100.0,1.0,1,1.0,2.064000000000078
95,5,0.5,100.0,1.0,1,1.0,3.9871010000000524
96,5,0.5,100.0,-1.0,-1,1.0,3.0741010000000415
97,5,0.5,50.0,-1.0,1,0.0,3.5165000000000646
98,5,0.4,50.0,-1.0,-1,1.0,0.3059009999999489
99,5,0.5,100.0,1.0,-1,0.0,2.8481010000000424
100,5,0.4,100.0,1.0,1,1.0,1.174301000000014
101,5,0.5,50.0,-1.0,1,0.0,3.7274010000001
102,5,0.6,50.0,1.0,1,1.0,1.0130010000000311
103,5,0.5,50.0,-1.0,-1,1.0,0.6683010000000422
104,5,0.5,100.0,1.0,1,1.0,1.6499000000000024
105,5,0.5,100.0,-1.0,1,0.0,1.7392000000000962
106,5,0.6,100.0,1.0,1,1.0,2.659001000000103
107,5,0.5,50.0,-1.0,-1,1.0,0.25210100000003877
108,5,0.5,100.0,1.0,1,1.0,0.6309009999999944
109,5,0.5,100.0,1.0,1,1.0,0.6856000000000222
110,5,0.5,50.0,1.0,1,1.0,0.9218009999999595
111,5,0.5,100.0,-1.0,1,0.0,0.05700100000012753
112,5,0.8,100.0,-1.0,1,0.0,1.44290100000012
113,5,0.8,100.0,1.0,1,1.0,0.1592000000000553
114,5,0.5,50.0,1.0,-1,0.0,1.7437000000001035
115,5,0.8,50.0,-1.0,1,0.0,2.720500000000129
116,5,0.8,50.0,-1.0,1,0.0,0.47090000000002874
117,5,0.8,50.0,1.0,1,1.0,2.0583010000000286
118,5,0.5,100.0,-1.0,1,0.0,3.0520010000000184
119,5,0.9,100.0,-1.0,-1,1.0,0.3625000000000682
120,5,0.5,100.0,-1.0,1,0.0,1.7364000000000033
121,5,0.8,100.0,-1.0,1,0.0,0.6650999999999385
122,5,0.8,100.0,-1.0,1,0.0,0.08950000000004366
123,5,0.8,100.0,-1.0,-1,1.0,3.0778999999999996
124,5,0.5,100.0,1.0,1,1.0,4.441299999999956
125,5,0.5,100.0,-1.0,1,0.0,3.4786000000000286
126,5,0.8,100.0,-1.0,1,0.0,5.534400000000005
127,5,0.8,100.0,-1.0,1,0.0,3.713901000000078
128,5,0.8,100.0,-1.0,-1,1.0,0.9275000000000091
129,5,0.5,50.0,-1.0,1,0.0,4.438699999999926
130,5,0.8,50.0,-1.0,-1,1.0,0.28930000000013933
131,5,0.5,50.0,-1.0,-1,1.0,1.8919010000000753
132,5,0.5,100.0,-1.0,-1,1.0,0.8805010000000948
133,5,0.5,100.0,-1.0,-1,1.0,3.791201000000001
134,5,0.5,50.0,1.0,1,1.0,1.6855010000000448
135,5,0.5,100.0,-1.0,-1,1.0,0.2772010000001046
136,5,0.5,50.0,-1.0,-1,1.0,0.4317000000000917
137,5,0.5,100.0,-1.0,-1,1.0,3.031601000000137
138,5,0.5,50.0,-1.0,-1,1.0,2.451400000000035
139,5,0.5,50.0,-1.0,-1,1.0,0.3235010000000784
140,5,0.5,50.0,1.0,-1,0.0,0.4856010000000879
141,5,0.1,50.0,1.0,-1,0.0,0.29270099999996546
142,5,0.1,50.0,-1.0,-1,1.0,0.40020000000004075
143,5,0.5,50.0,1.0,-1,0.0,2.2111999999999625
144,5,0.1,50.0,1.0,1,1.0,3.368201000000113
145,5,0.5,50.0,1.0,1,1.0,3.6659009999999626
146,5,0.5,100.0,1.0,1,1.0,0.38730100000009315
147,5,0.5,50.0,-1.0,1,0.0,1.0615999999999985
148,5,0.4,50.0,-1.0,-1,1.0,0.2701000000000704
149,5,0.5,50.0,-1.0,-1,1.0,0.5729010000000017
150,5,0.5,50.0,-1.0,-1,1.0,0.265901000000099
151,5,0.5,50.0,-1.0,-1,1.0,2.0417000000001053
152,5,0.5,100.0,-1.0,-1,1.0,0.30140000000005784
153,5,0.5,50.0,1.0,-1,0.0,0.5053010000000313
154,5,0.4,50.0,-1.0,-1,1.0,0.35780099999999493
155,5,0.5,50.0,-1.0,-1,1.0,3.0156010000000606
156,5,0.5,50.0,1.0,-1,0.0,1.025000000000091
157,5,0.1,50.0,1.0,1,1.0,0.8218009999999367
158,5,0.5,100.0,1.0,-1,0.0,3.2407000000000608
159,5,0.1,100.0,-1.0,-1,1.0,1.1935000000000855
160,5,0.5,100.0,1.0,-1,0.0,2.7602000000000544
161,5,0.1,100.0,1.0,-1,0.0,0.568300000000022
162,5,0.1,100.0,-1.0,1,0.0,1.9796000000001186
163,5,0.2,100.0,-1.0,1,0.0,3.288200999999958
164,5,0.3,100.0,-1.0,-1,1.0,0.3390000000000555
165,5,0.5,50.0,1.0,1,1.0,5.284200000000055
166,5,0.5,50.0,-1.0,-1,1.0,0.5754000000000588
167,5,0.5,50.0,-1.0,-1,1.0,1.308300000000031
168,5,0.5,50.0,1.0,1,1.0,0.756601000000046
169,5,0.5,100.0,1.0,-1,0.0,2.1849010000000817
170,5,0.4,100.0,1.0,-1,0.0,2.917500000000018
171,5,0.4,100.0,1.0,-1,0.0,0.9073999999999387
172,5,0.4,100.0,1.0,1,1.0,3.8819010000000844
173,5,0.5,100.0,1.0,1,1.0,2.126901000000089
174,5,0.5,50.0,1.0,1,1.0,1.9838009999999713
175,5,0.5,50.0,1.0,1,1.0,1.2923010000000659
176,5,0.5,50.0,1.0,1,1.0,0.11730000000000018
177,5,0.5,100.0,-1.0,-1,1.0,0.06470100000001366
178,5,0.5,50.0,-1.0,-1,1.0,0.8247010000001183
179,5,0.5,100.0,1.0,1,1.0,2.8082010000000537
180,5,0.5,100.0,1.0,1,1.0,1.4115010000000439
181,5,0.5,50.0,-1.0,1,0.0,2.9601000000000113
182,5,0.8,50.0,-1.0,-1,1.0,1.1635000000001128
183,5,0.5,50.0,-1.0,1,0.0,7.638600999999994
184,5,0.7,50.0,-1.0,1,0.0,1.8285000000000764
185,5,0.7,50.0,-1.0,1,0.0,0.5612010000000964
186,5,0.7,50.0,-1.0,-1,1.0,0.4492010000001301
187,5,0.5,50.0,-1.0,-1,1.0,2.4419000000000324
188,5,0.5,50.0,-1.0,-1,1.0,0.28670099999999366
189,5,0.5,100.0,1.0,-1,0.0,0.33270100000004277
190,5,0.5,100.0,-1.0,-1,1.0,0.3206009999998969
191,5,0.5,50.0,-1.0,-1,1.0,3.2524000000000797
192,5,0.5,50.0,1.0,-1,0.0,4.2232000000001335
193,5,0.3,50.0,1.0,1,1.0,4.234199999999873
194,5,0.5,100.0,-1.0,-1,1.0,5.798201000000063
195,5,0.5,50.0,-1.0,1,0.0,4.049099999999953
196,5,0.2,50.0,-1.0,-1,1.0,1.7801010000000588
197,5,0.5,50.0,1.0,1,1.0,0.19120100000009188
198,5,0.5,100.0,-1.0,-1,1.0,5.260401000000002
199,5,0.5,50.0,1.0,-1,0.0,4.911399999999958
200,5,0.3,50.0,-1.0,-1,1.0,0.5986010000001443
201,5,0.5,100.0,1.0,-1,0.0,4.943199999999933
202,5,0.3,100.0,1.0,1,1.0,3.3102010000002338
203,5,0.5,50.0,1.0,-1,0.0,0.21240000000011605
204,5,0.3,50.0,-1.0,1,0.0,2.8384000000000924
205,5,0.4,50.0,1.0,1,1.0,1.725800000000163
206,5,0.5,100.0,1.0,1,1.0,0.460901000000149
207,5,0.5,50.0,-1.0,-1,1.0,1.07640100000026
208,5,0.5,50.0,-1.0,-1,1.0,2.692000999999891
209,5,0.5,50.0,1.0,-1,0.0,2.616400999999996
210,5,0.4,50.0,1.0,1,1.0,4.571100000000115
211,5,0.5,50.0,1.0,1,1.0,1.9922999999998865
212,5,0.5,50.0,1.0,-1,0.0,3.3510000000001128
213,5,0.5,50.0,-1.0,-1,1.0,1.6417010000000118
214,5,0.5,50.0,1.0,1,1.0,0.2699999999999818
215,5,0.5,100.0,-1.0,1,0.0,4.219100000000026
216,5,0.5,100.0,-1.0,-1,1.0,3.653200000000197
217,5,0.5,50.0,-1.0,-1,1.0,0.4044010000000071
218,5,0.5,100.0,1.0,-1,0.0,2.0936009999998078
219,5,0.4,100.0,1.0,1,1.0,2.2657000000001517
220,5,0.5,50.0,-1.0,-1,1.0,0.22740100000009988
221,5,0.5,50.0,-1.0,-1,1.0,0.3771009999998114
222,5,0.5,50.0,1.0,1,1.0,0.06580099999996492
223,5,0.5,100.0,1.0,-1,0.0,0.10500000000001819
224,5,0.4,100.0,-1.0,-1,1.0,3.554301000000123
225,5,0.5,100.0,1.0,-1,0.0,0.425899999999956
226,5,0.2,100.0,1.0,-1,0.0,0.4087010000000646
227,5,0.2,100.0,-1.0,-1,1.0,3.2638010000000577
228,5,0.5,100.0,1.0,1,1.0,5.9008000000001175
229,5,0.5,50.0,1.0,1,1.0,4.017700999999988
230,5,0.5,50.0,-1.0,-1,1.0,0.13869999999997162
231,5,0.5,50.0,-1.0,-1,1.0,0.8611010000001897
232,5,0.5,100.0,-1.0,-1,1.0,0.3602000000000771
233,5,0.5,100.0,-1.0,-1,1.0,2.384800000000041
234,5,0.5,100.0,-1.0,-1,1.0,4.215700000000197
235,5,0.5,100.0,1.0,1,1.0,3.256200999999919
236,5,0.5,100.0,-1.0,1,0.0,4.3036010000000715
237,5,0.4,100.0,1.0,1,1.0,0.28870099999994636
238,5,0.5,100.0,1.0,1,1.0,3.3125
239,5,0.5,50.0,-1.0,1,0.0,0.6981010000001788
240,5,0.5,50.0,1.0,1,1.0,0.6367000000000189
241,5,0.5,50.0,-1.0,-1,1.0,0.2922009999999773
242,5,0.5,100.0,1.0,1,1.0,0.19830000000001746
243,5,0.5,100.0,-1.0,-1,1.0,0.1727000000003045
244,5,0.5,100.0,-1.0,-1,1.0,0.6208010000000286
245,5,0.5,100.0,1.0,-1,0.0,0.2670010000001639
246,5,0.6,100.0,1.0,1,1.0,0.4054000000000997
247,5,0.5,50.0,1.0,1,1.0,2.36720100000025
248,5,0.5,100.0,1.0,1,1.0,1.242001000000073
249,5,0.5,100.0,-1.0,-1,1.0,1.2962999999999738
250,5,0.5,100.0,1.0,1,1.0,3.2515010000001894
251,5,0.5,50.0,1.0,1,1.0,3.625200000000177
252,5,0.5,100.0,1.0,1,1.0,0.5174010000000635
253,5,0.5,100.0,-1.0,-1,1.0,1.16800000000012
254,5,0.5,50.0,-1.0,-1,1.0,0.5633000000000266
255,5,0.5,50.0,1.0,1,1.0,3.4349010000000817
256,5,0.5,100.0,1.0,-1,0.0,0.24970100000018647
257,5,0.6,100.0,1.0,1,1.0,0.73170099999993
258,5,0.5,100.0,1.0,1,1.0,0.743300999999974
259,5,0.5,50.0,1.0,1,1.0,1.7187999999998738
260,5,0.5,50.0,1.0,-1,0.0,0.29109999999991487
261,5,0.6,50.0,-1.0,-1,1.0,0.37940000000025975
262,5,0.5,50.0,1.0,1,1.0,3.024900000000116
263,5,0.5,50.0,-1.0,-1,1.0,2.7856000000001586
264,5,0.5,100.0,1.0,1,1.0,0.6767000000002099
265,5,0.5,100.0,1.0,1,1.0,0.45970100000022285
266,5,0.5,50.0,-1.0,-1,1.0,0.592000999999982
267,5,0.5,100.0,-1.0,-1,1.0,1.1969010000000253
268,5,0.5,100.0,1.0,-1,0.0,1.8256000000001222
269,5,0.4,100.0,1.0,1,1.0,0.4405010000000402
270,5,0.5,50.0,-1.0,-1,1.0,0.3931999999999789
271,5,0.5,50.0,-1.0,-1,1.0,1.2821010000000115
272,5,0.5,50.0,1.0,1,1.0,4.189801000000216
273,5,0.5,50.0,-1.0,1,0.0,1.3838009999999485
274,5,0.5,50.0,1.0,1,1.0,0.432501000000002
275,5,0.5,50.0,1.0,1,1.0,2.986600999999837
276,5,0.5,100.0,1.0,1,1.0,3.7343000000000757
277,5,0.5,50.0,1.0,1,1.0,1.7326010000001588
278,5,0.5,50.0,-1.0,1,0.0,3.0204000000001088
279,5,0.8,50.0,-1.0,-1,1.0,0.37140100000010534
280,5,0.5,100.0,-1.0,1,0.0,6.136799999999994
281,5,0.8,100.0,-1.0,-1,1.0,0.3938010000001668
282,5,0.5,100.0,-1.0,1,0.0,4.499201000000312
283,5,0.8,100.0,-1.0,-1,1.0,0.3429999999998472
284,5,0.5,50.0,-1.0,-1,1.0,3.1755010000001676
285,5,0.5,100.0,1.0,1,1.0,2.763701000000083
286,5,0.5,100.0,-1.0,-1,1.0,0.24590100000023085
287,5,0.5,50.0,1.0,1,1.0,2.497301000000107
288,5,0.5,50.0,-1.0,-1,1.0,0.45260000000007494
289,5,0.5,50.0,-1.0,-1,1.0,0.21160099999997328
290,5,0.5,50.0,-1.0,1,0.0,2.4398000000001048
291,5,0.4,50.0,-1.0,-1,1.0,0.3146999999999025
292,5,0.5,50.0,1.0,-1,0.0,0.28040099999998347
293,5,0.3,50.0,-1.0,-1,1.0,0.8628010000002178
294,5,0.5,50.0,-1.0,1,0.0,0.924199999999928
295,5,0.4,50.0,1.0,1,1.0,2.9597000000001117
296,5,0.5,50.0,-1.0,-1,1.0,0.13810100000000602
297,5,0.5,100.0,-1.0,-1,1.0,1.1029009999999744
298,5,0.5,50.0,1.0,-1,0.0,1.7555010000000948
299,5,0.3,50.0,1.0,-1,0.0,0.610501000000113
300,5,0.3,50.0,1.0,1,1.0,0.5533010000001468
301,5,0.5,50.0,1.0,-1,0.0,0.13869999999997162
302,5,0.3,50.0,1.0,-1,0.0,0.5276999999998679
303,5,0.3,50.0,1.0,1,1.0,0.019800000000032014
304,5,0.5,100.0,1.0,1,1.0,4.234501000000137
305,5,0.5,100.0,1.0,1,1.0,1.0420999999998912
306,5,0.5,50.0,1.0,1,1.0,0.9408010000001923
307,5,0.5,50.0,-1.0,-1,1.0,0.30680099999995036
308,5,0.5,50.0,1.0,1,1.0,2.3287010000001374
309,5,0.5,50.0,1.0,1,1.0,3.721001000000115
310,5,0.5,50.0,-1.0,-1,1.0,0.0597010000001319
311,5,0.5,100.0,1.0,-1,0.0,1.2746010000000751
312,5,0.6,100.0,-1.0,1,0.0,0.7934999999999945
313,5,0.7,100.0,-1.0,1,0.0,2.7543000000000575
314,5,0.7,100.0,-1.0,-1,1.0,0.4890010000001439
315,5,0.5,100.0,-1.0,-1,1.0,3.841000000000122
316,5,0.5,50.0,1.0,1,1.0,2.4187999999999192
317,5,0.5,50.0,-1.0,1,0.0,3.7875010000002476
318,5,0.6,50.0,-1.0,-1,1.0,0.31490100000019083
319,5,0.5,100.0,1.0,1,1.0,5.886700000000019
320,5,0.5,100.0,1.0,-1,0.0,0.28090100000008533
321,5,0.5,100.0,1.0,1,1.0,1.4628009999998994
322,5,0.5,50.0,1.0,1,1.0,2.4879009999999653
323,5,0.5,50.0,-1.0,1,0.0,3.65620100000001
324,5,0.6,50.0,1.0,1,1.0,0.25050000000010186
325,5,0.5,100.0,-1.0,-1,1.0,0.7164000000000215
326,5,0.5,100.0,-1.0,-1,1.0,0.5113999999998668
327,5,0.5,100.0,1.0,1,1.0,0.36670100000014827
328,5,0.5,50.0,1.0,-1,0.0,0.32880100000011225
329,5,0.6,50.0,-1.0,1,0.0,0.6648000000000138
330,5,0.6,50.0,1.0,1,1.0,0.6032999999999902
331,5,0.5,100.0,1.0,1,1.0,2.931600000000117
332,5,0.5,100.0,1.0,1,1.0,1.3296010000001388
333,5,0.5,50.0,1.0,1,1.0,0.5753010000000813
334,5,0.5,100.0,-1.0,-1,1.0,0.19810000000006767
335,5,0.5,50.0,-1.0,-1,1.0,0.21670000000017353
336,5,0.5,100.0,1.0,1,1.0,0.4256009999999151
337,5,0.5,50.0,-1.0,-1,1.0,1.7881999999999607
338,5,0.5,100.0,-1.0,-1,1.0,0.289801000000125
339,5,0.5,100.0,-1.0,-1,1.0,1.0391000000001895
340,5,0.5,100.0,1.0,1,1.0,2.737701000000243
341,5,0.5,50.0,-1.0,-1,1.0,2.10570000000007
342,5,0.5,100.0,1.0,1,1.0,2.657400999999936
343,5,0.5,50.0,1.0,1,1.0,0.4167009999998754
344,5,0.5,50.0,1.0,1,1.0,0.47470000000021173
345,5,0.5,100.0,1.0,1,1.0,0.13360100000022612
346,5,0.5,100.0,1.0,1,1.0,0.5579009999999016
347,5,0.5,50.0,-1.0,-1,1.0,0.6854010000001836
348,5,0.5,50.0,1.0,1,1.0,3.0113010000002305
349,5,0.5,100.0,-1.0,1,0.0,3.504801000000043
350,5,0.8,100.0,1.0,1,1.0,0.5961999999999534
351,5,0.5,50.0,1.0,1,1.0,1.5085010000000239
352,5,0.5,100.0,-1.0,-1,1.0,1.1706010000000333
353,5,0.5,50.0,1.0,1,1.0,0.5866009999997459
354,5,0.5,100.0,1.0,1,1.0,3.231800000000021
355,5,0.5,100.0,-1.0,1,0.0,2.628600000000006
356,5,0.8,100.0,1.0,1,1.0,0.13360000000011496
357,5,0.5,50.0,-1.0,-1,1.0,0.34819999999990614
358,5,0.5,100.0,1.0,1,1.0,0.23080000000004475
359,5,0.5,100.0,-1.0,-1,1.0,0.7668009999999867
360,5,0.5,100.0,-1.0,-1,1.0,0.29900100000008933
361,5,0.5,100.0,1.0,-1,0.0,0.10820000000012442
362,5,0.5,100.0,1.0,1,1.0,4.987100000000055
363,5,0.5,50.0,1.0,1,1.0,0.40400000000022374
364,5,0.5,100.0,1.0,1,1.0,0.8360010000001239
365,5,0.5,100.0,1.0,1,1.0,2.5347009999998136
366,5,0.5,50.0,1.0,1,1.0,3.2253000000002885
367,5,0.5,50.0,1.0,1,1.0,0.4469000000001415
368,5,0.5,50.0,-1.0,1,0.0,3.30820000000017
369,5,0.7,50.0,-1.0,-1,1.0,0.2295010000000275
370,5,0.5,100.0,-1.0,1,0.0,2.7376010000000406
371,5,0.8,100.0,-1.0,1,0.0,1.2393010000000686
372,5,0.9,100.0,-1.0,1,0.0,0.4046000000000731
373,5,0.9,100.0,1.0,1,1.0,0.5036009999998896
374,5,0.5,50.0,-1.0,1,0.0,1.2027009999999336
375,5,0.9,50.0,-1.0,1,0.0,1.7081000000000586
376,5,0.9,50.0,1.0,1,1.0,0.3167000000000826
377,5,0.5,100.0,-1.0,-1,1.0,0.5491000000001804
378,5,0.5,100.0,1.0,1,1.0,1.6950009999998201
379,5,0.5,100.0,1.0,1,1.0,0.2438009999998485
380,5,0.5,50.0,1.0,1,1.0,0.8229000000001179
381,5,0.5,100.0,1.0,-1,0.0,0.3751009999996313
382,5,0.8,100.0,-1.0,1,0.0,0.540599999999813
383,5,0.8,100.0,-1.0,-1,1.0,0.36270099999956074
384,5,0.5,50.0,-1.0,-1,1.0,3.4902000000001863
385,5,0.5,50.0,-1.0,-1,1.0,0.9148999999997613
386,5,0.5,50.0,-1.0,1,0.0,2.8105000000000473
387,5,0.5,50.0,1.0,1,1.0,1.5783999999994194
388,5,0.5,100.0,-1.0,-1,1.0,0.40719999999964784
389,5,0.5,100.0,1.0,1,1.0,0.9297999999998865
390,5,0.5,50.0,-1.0,-1,1.0,0.4318999999995867
391,5,0.5,50.0,1.0,1,1.0,3.4304009999996197
392,5,0.5,50.0,1.0,1,1.0,0.7719999999994798
393,5,0.5,50.0,-1.0,-1,1.0,0.1477999999997337
394,5,0.5,100.0,-1.0,-1,1.0,1.7429000000001906
395,5,0.5,100.0,-1.0,-1,1.0,0.39500000000043656
396,5,0.5,50.0,1.0,1,1.0,0.48420100000021193
397,5,0.5,100.0,1.0,1,1.0,2.355700999999499
398,5,0.5,100.0,-1.0,1,0.0,2.790700999999899
399,5,0.6,100.0,-1.0,1,0.0,0.575601000000006
400,5,0.6,100.0,1.0,1,1.0,0.9512999999997191
401,5,0.5,100.0,-1.0,-1,1.0,0.6637009999999464
402,5,0.5,100.0,1.0,1,1.0,3.2361999999993714
403,5,0.5,50.0,-1.0,-1,1.0,0.19210100000009334
404,5,0.5,100.0,-1.0,1,0.0,3.635200999999597
405,5,0.7,100.0,-1.0,1,0.0,1.3433999999997468
406,5,0.8,100.0,-1.0,-1,1.0,0.4185010000001057
407,5,0.5,50.0,-1.0,-1,1.0,0.3242009999999027
408,5,0.5,100.0,-1.0,-1,1.0,0.4674009999998816
409,5,0.5,50.0,1.0,-1,0.0,2.7065999999999804
410,5,0.4,50.0,1.0,-1,0.0,3.2308009999992464
411,5,0.3,50.0,-1.0,1,0.0,5.215599999999995
412,5,0.4,50.0,-1.0,-1,1.0,0.41700100000025486
413,5,0.5,100.0,1.0,1,1.0,2.882199999999557
414,5,0.5,50.0,-1.0,-1,1.0,0.1634009999997943
415,5,0.5,100.0,1.0,-1,0.0,2.9148009999998976
416,5,0.2,100.0,1.0,-1,0.0,1.0229009999998198
417,5,0.2,100.0,1.0,1,1.0,2.3917999999998756
418,5,0.5,50.0,1.0,-1,0.0,0.4040999999997439
419,5,0.3,50.0,-1.0,1,0.0,0.9222999999997228
420,5,0.4,50.0,1.0,1,1.0,0.7280000000000655
421,5,0.5,100.0,-1.0,1,0.0,2.2103010000000722
422,5,0.5,100.0,1.0,1,1.0,3.501499999999396
423,5,0.5,100.0,1.0,1,1.0,2.243500999999924
424,5,0.5,50.0,1.0,1,1.0,0.6048999999998159
425,5,0.5,50.0,1.0,1,1.0,3.9000009999999747
426,5,0.5,100.0,-1.0,1,0.0,2.6981009999999515
427,5,0.9,100.0,-1.0,1,0.0,0.5093000000001666
428,5,0.9,100.0,-1.0,1,0.0,4.1181009999995695
429,5,1.0,100.0,1.0,1,1.0,2.8727010000002338
430,5,0.5,100.0,-1.0,1,0.0,2.0909010000000308
431,5,1.0,100.0,-1.0,-1,1.0,0.5891009999995731
432,5,0.5,100.0,-1.0,1,0.0,0.798200999999608
433,5,0.9,100.0,-1.0,1,0.0,3.2534999999998035
434,5,0.9,100.0,1.0,1,1.0,0.48500000000012733
435,5,0.5,100.0,-1.0,-1,1.0,0.5374010000000453
436,5,0.5,50.0,1.0,1,1.0,0.390100999999504
437,5,0.5,100.0,-1.0,-1,1.0,0.421900999999707
438,5,0.5,50.0,-1.0,-1,1.0,0.7013999999994667
439,5,0.5,100.0,1.0,1,1.0,0.2202009999996335
440,5,0.5,100.0,1.0,-1,0.0,0.20980000000008658
441,5,0.5,100.0,1.0,1,1.0,0.9850000000001273
442,5,0.5,100.0,1.0,-1,0.0,1.5670999999997548
443,5,0.5,100.0,-1.0,-1,1.0,0.46969999999964784
444,5,0.5,100.0,-1.0,-1,1.0,0.2986009999995076
445,5,0.5,50.0,-1.0,-1,1.0,0.2846999999997024
446,5,0.5,50.0,-1.0,-1,1.0,2.673400999999558
447,5,0.5,100.0,-1.0,-1,1.0,2.488100999999915
448,5,0.5,50.0,1.0,-1,0.0,0.9069009999998343
449,5,0.2,50.0,1.0,1,1.0,0.6918009999994865
450,5,0.5,50.0,1.0,1,1.0,4.413301000000047
451,5,0.5,50.0,1.0,1,1.0,0.28800099999943995
452,5,0.5,50.0,1.0,1,1.0,2.8372999999996864
453,5,0.5,100.0,-1.0,-1,1.0,0.4915009999999711
454,5,0.5,50.0,1.0,1,1.0,5.456400999999914
455,5,0.5,50.0,-1.0,-1,1.0,0.28710000000000946
456,5,0.5,50.0,1.0,1,1.0,2.4765999999995074
457,5,0.5,50.0,1.0,1,1.0,2.898001000000022
458,5,0.5,100.0,-1.0,1,0.0,4.711399999999685
459,5,0.8,100.0,-1.0,1,0.0,2.966501000000335
460,5,0.8,100.0,1.0,1,1.0,2.8539999999993597
461,5,0.5,50.0,1.0,1,1.0,0.4884999999999309
462,5,0.5,50.0,1.0,1,1.0,3.077401000000009
463,5,0.5,50.0,-1.0,1,0.0,1.3791999999998552
464,5,0.9,50.0,-1.0,1,0.0,1.2912009999995462
465,5,0.9,50.0,-1.0,-1,1.0,0.5265009999998256
466,5,0.5,50.0,-1.0,-1,1.0,2.8584009999995033
467,5,0.5,50.0,-1.0,1,0.0,5.592800999999781
468,5,0.8,50.0,1.0,1,1.0,0.680000000000291
469,5,0.5,50.0,1.0,1,1.0,2.906000999999378
470,5,0.5,50.0,1.0,1,1.0,0.3006999999997788
471,5,0.5,100.0,-1.0,1,0.0,0.6530010000001312
472,5,0.8,100.0,-1.0,-1,1.0,0.4284010000001217
473,5,0.5,50.0,-1.0,1,0.0,3.318001000000095
474,5,0.7,50.0,-1.0,-1,1.0,0.3691009999997732
475,5,0.5,100.0,-1.0,1,0.0,5.340499999999793
476,5,0.7,100.0,-1.0,-1,1.0,0.3049009999995178
477,5,0.5,50.0,-1.0,-1,1.0,0.4265010000003713
478,5,0.5,100.0,-1.0,-1,1.0,0.635899999999765
479,5,0.5,100.0,-1.0,-1,1.0,4.723201000000245
480,5,0.5,100.0,1.0,1,1.0,2.588000999999622
481,5,0.5,50.0,-1.0,-1,1.0,0.4194999999999709
482,5,0.5,50.0,1.0,1,1.0,0.2587009999992915
483,5,0.5,50.0,1.0,1,1.0,0.5208999999995285
484,5,0.5,50.0,1.0,-1,0.0,0.4964999999997417
485,5,0.4,50.0,1.0,1,1.0,0.4489999999996144
486,5,0.5,50.0,1.0,1,1.0,2.234900999999809
487,5,0.5,50.0,-1.0,-1,1.0,0.01139999999986685
488,5,0.5,50.0,1.0,1,1.0,3.3764009999995324
489,5,0.5,100.0,-1.0,1,0.0,5.593700999999783
490,5,0.7,100.0,-1.0,-1,1.0,1.0268009999999776
491,5,0.5,50.0,-1.0,1,0.0,2.379500999999891
492,5,0.7,50.0,1.0,1,1.0,0.4747010000000955
493,5,0.5,50.0,-1.0,-1,1.0,2.790200999999797
494,5,0.5,50.0,1.0,1,1.0,3.407600999999886
495,5,0.5,100.0,-1.0,-1,1.0,2.0320010000000366
496,5,0.5,100.0,-1.0,-1,1.0,0.4409009999999398
497,5,0.5,100.0,1.0,-1,0.0,3.923500000000331
498,5,0.5,100.0,-1.0,-1,1.0,5.43420100000003
499,5,0.5,50.0,1.0,-1,0.0,1.5553009999998721
500,5,0.3,50.0,1.0,1,1.0,4.450401000000056
501,5,0.5,50.0,1.0,1,1.0,1.6250999999992928
502,5,0.5,100.0,1.0,-1,0.0,0.520600999999715
503,5,0.3,100.0,1.0,1,1.0,2.3864999999996144
504,5,0.5,100.0,1.0,1,1.0,5.706899999999678
505,5,0.5,100.0,-1.0,-1,1.0,0.9868999999998778
506,5,0.5,100.0,1.0,1,1.0,2.412399999999707
507,5,0.5,100.0,-1.0,-1,1.0,0.47739999999976135
508,5,0.5,50.0,1.0,1,1.0,0.7238009999996393
509,5,0.5,50.0,-1.0,-1,1.0,0.508600999999544
510,5,0.5,100.0,-1.0,-1,1.0,1.011700000000019
511,5,0.5,100.0,-1.0,-1,1.0,0.36330099999986487
512,5,0.5,50.0,1.0,1,1.0,6.245100000000093
513,5,0.5,100.0,1.0,1,1.0,1.2148000000001957
514,5,0.5,50.0,-1.0,1,0.0,1.1037999999998647
515,5,0.5,50.0,1.0,1,1.0,3.8226009999998496
516,5,0.5,100.0,-1.0,1,0.0,5.1499009999997725
517,5,0.6,100.0,1.0,1,1.0,3.020600999999715
518,5,0.5,50.0,-1.0,-1,1.0,0.6260010000000875
519,5,0.5,100.0,1.0,1,1.0,3.5046009999996386
520,5,0.5,100.0,1.0,1,1.0,2.40630099999953
521,5,0.5,100.0,1.0,1,1.0,0.4814010000000053
522,5,0.5,100.0,-1.0,1,0.0,3.740900999999667
523,5,0.9,100.0,-1.0,-1,1.0,0.46490099999982704
524,5,0.5,100.0,-1.0,-1,1.0,3.673800999999912
525,5,0.5,100.0,1.0,1,1.0,13.171100999999908
526,5,0.5,50.0,-1.0,1,0.0,6.691799999999603
527,5,0.7,50.0,-1.0,-1,1.0,0.5619999999994434
528,5,0.5,100.0,-1.0,-1,1.0,0.36169999999992797
529,5,0.5,50.0,-1.0,-1,1.0,0.43429999999989377
530,5,0.5,100.0,1.0,1,1.0,0.25619999999935317
531,5,0.5,50.0,1.0,1,1.0,3.9386009999993803
532,5,0.5,100.0,-1.0,1,0.0,4.515799999999672
533,5,0.5,100.0,-1.0,-1,1.0,0.6745009999999638
534,5,0.5,50.0,1.0,1,1.0,0.19620099999974627
535,5,0.5,100.0,1.0,-1,0.0,1.758600999999544
536,5,0.5,100.0,1.0,1,1.0,1.0799009999996088
537,5,0.5,100.0,-1.0,-1,1.0,0.31620099999963713
538,5,0.5,100.0,1.0,1,1.0,2.7885999999998603
539,5,0.5,50.0,-1.0,1,0.0,0.2467009999995753
540,5,0.7,50.0,1.0,1,1.0,0.7392009999998663
541,5,0.5,50.0,1.0,1,1.0,0.7047010000001137
542,5,0.5,100.0,-1.0,-1,1.0,0.7201000000000022
543,5,0.5,50.0,1.0,1,1.0,1.1126009999998132
544,5,0.5,50.0,-1.0,1,0.0,3.974300999999741
545,5,0.7,50.0,-1.0,-1,1.0,1.496599999999944
546,5,0.5,50.0,-1.0,1,0.0,3.6268999999997504
547,5,0.7,50.0,1.0,1,1.0,2.574800999999752
548,5,0.5,100.0,-1.0,1,0.0,2.623501000000033
549,5,0.8,100.0,-1.0,1,0.0,0.641599999999471
550,5,0.8,100.0,1.0,1,1.0,0.6005000000000109
551,5,0.5,100.0,-1.0,1,0.0,3.573699999999917
552,5,0.8,100.0,-1.0,-1,1.0,0.5709009999995942
553,5,0.5,50.0,-1.0,1,0.0,0.6908000000003085
554,5,0.8,50.0,-1.0,-1,1.0,6.752399999999852
555,5,0.5,100.0,1.0,1,1.0,0.5322999999998501
556,5,0.5,50.0,-1.0,1,0.0,10.074599999999919
557,5,0.8,50.0,-1.0,1,0.0,1.9205999999994674
558,5,0.8,50.0,1.0,1,1.0,0.9126009999995404
559,5,0.5,100.0,-1.0,1,0.0,7.976800999999796
560,5,0.8,100.0,-1.0,1,0.0,7.993300999999974
561,5,0.8,100.0,-1.0,-1,1.0,10.542199999999866
562,5,0.5,50.0,-1.0,-1,1.0,3.2948999999998705
563,5,0.5,100.0,-1.0,1,0.0,6.6862999999998465
564,5,0.7,100.0,-1.0,-1,1.0,7.349499999999352
565,5,0.5,100.0,1.0,1,1.0,7.920101000000159
566,5,0.5,50.0,-1.0,-1,1.0,1.7635999999997694
567,5,0.5,50.0,1.0,1,1.0,15.961199999999735
568,5,0.5,50.0,1.0,1,1.0,3.3822009999994407
569,5,0.5,50.0,-1.0,1,0.0,4.867201000000023
570,5,0.6,50.0,-1.0,1,0.0,1.9916009999997186
571,5,0.6,50.0,1.0,1,1.0,5.76010099999985
572,5,0.5,50.0,1.0,1,1.0,1.971599999999853
573,5,0.5,50.0,-1.0,1,0.0,2.866399999999885
574,5,0.8,50.0,-1.0,-1,1.0,0.9045000000000982
575,5,0.5,100.0,-1.0,-1,1.0,0.29050099999994927
576,5,0.5,100.0,-1.0,-1,1.0,0.4668010000000322
577,5,0.5,50.0,-1.0,-1,1.0,2.611699999999928
578,5,0.5,50.0,-1.0,-1,1.0,8.253299999999854
579,5,0.5,100.0,-1.0,-1,1.0,11.018799999999828
580,5,0.5,100.0,-1.0,-1,1.0,6.313300999999683
581,5,0.5,50.0,1.0,1,1.0,1.8809009999999944
582,5,0.5,50.0,1.0,1,1.0,6.21230099999957
583,5,0.5,100.0,1.0,1,1.0,4.5130999999996675
584,5,0.5,100.0,1.0,1,1.0,1.2341000000001259
585,5,0.5,100.0,-1.0,-1,1.0,1.6861009999997805
586,5,0.5,100.0,1.0,1,1.0,0.36180000000013024
587,5,0.5,50.0,1.0,-1,0.0,4.763699999999972
588,5,0.5,50.0,1.0,1,1.0,3.4958010000000286
589,5,0.5,100.0,-1.0,1,0.0,0.9370999999996457
590,5,0.7,100.0,-1.0,1,0.0,2.806300000000192
591,5,0.8,100.0,-1.0,-1,1.0,5.880899999999201
592,5,0.5,100.0,-1.0,-1,1.0,5.545399999999972
593,5,0.5,50.0,1.0,1,1.0,25.828800999999658
594,5,0.5,100.0,1.0,1,1.0,6.683700999999928
595,5,0.5,100.0,1.0,1,1.0,0.7996999999995751
596,5,0.5,100.0,1.0,1,1.0,4.752401000000191
597,5,0.5,100.0,-1.0,-1,1.0,0.5664010000000417
598,5,0.5,100.0,-1.0,1,0.0,1.2843999999995503
599,5,0.7,100.0,1.0,1,1.0,4.276100999999926
600,5,0.5,50.0,1.0,1,1.0,3.7442009999999755
601,5,0.5,50.0,-1.0,1,0.0,6.528899999999339
602,5,0.8,50.0,-1.0,1,0.0,7.052599999999984
603,5,0.9,50.0,1.0,1,1.0,1.1261999999996988
604,5,0.5,50.0,-1.0,1,0.0,5.332201000000168
605,5,0.9,50.0,-1.0,-1,1.0,0.7224009999999907
606,5,0.5,50.0,-1.0,-1,1.0,14.790600999999697
607,5,0.5,50.0,-1.0,-1,1.0,2.0153999999997723
608,5,0.5,50.0,1.0,-1,0.0,2.6510010000001785
609,5,0.6,50.0,1.0,1,1.0,1.06570099999999
610,5,0.5,100.0,-1.0,-1,1.0,3.4079009999995833
611,5,0.5,50.0,-1.0,1,0.0,11.139200999999957
612,5,0.5,50.0,1.0,1,1.0,1.035099999999602
613,5,0.5,50.0,-1.0,-1,1.0,6.800300999999763
614,5,0.5,100.0,-1.0,-1,1.0,7.921700999999757
615,5,0.5,50.0,-1.0,1,0.0,25.78389999999945
616,5,0.4,50.0,1.0,1,1.0,6.864600000000337
617,5,0.5,50.0,1.0,1,1.0,5.70580099999961
618,5,0.5,50.0,-1.0,1,0.0,6.218401000000085
619,5,0.7,50.0,-1.0,1,0.0,11.04220099999975
620,5,0.7,50.0,1.0,1,1.0,1.745600999999624
621,5,0.5,50.0,-1.0,-1,1.0,4.389800999999807
622,5,0.5,50.0,-1.0,-1,1.0,10.284301000000141
623,5,0.5,100.0,1.0,1,1.0,1.240400999999565
624,5,0.5,50.0,1.0,1,1.0,1.3062009999998736
625,5,0.5,50.0,1.0,1,1.0,21.66850099999965
626,5,0.5,100.0,1.0,1,1.0,3.8082009999998263
627,5,0.5,50.0,-1.0,-1,1.0,21.739400999999816
628,5,0.5,50.0,-1.0,1,0.0,26.63169999999991
629,5,0.7,50.0,-1.0,1,0.0,7.046100999999453
630,5,0.7,50.0,-1.0,1,0.0,1.2220999999995001
631,5,0.7,50.0,-1.0,-1,1.0,1.5715000000000146
632,5,0.5,50.0,-1.0,1,0.0,3.0720009999995455
633,5,0.8,50.0,1.0,1,1.0,5.670300999999654
634,5,0.5,50.0,1.0,1,1.0,1.4908999999997832
635,5,0.5,50.0,-1.0,-1,1.0,2.726000999999542
636,5,0.5,100.0,-1.0,1,0.0,19.927999999999884
637,5,0.7,100.0,-1.0,1,0.0,20.51319999999987
638,5,0.8,100.0,1.0,1,1.0,20.932600999999522
639,5,0.5,100.0,1.0,1,1.0,4.8510999999994056
640,5,0.5,100.0,1.0,1,1.0,1.7494999999998981
641,5,0.5,50.0,1.0,1,1.0,0.7880010000003494
642,5,0.5,100.0,1.0,1,1.0,1.0101009999998496
643,5,0.5,50.0,1.0,1,1.0,4.455300999999963
644,5,0.5,100.0,1.0,1,1.0,0.5736000000001695
645,5,0.5,50.0,1.0,1,1.0,2.0427999999997155
646,5,0.5,100.0,1.0,1,1.0,9.747700999999779
647,5,0.5,100.0,-1.0,-1,1.0,0.4677999999998974
648,5,0.5,50.0,-1.0,1,0.0,1.810099999999693
649,5,0.9,50.0,1.0,1,1.0,5.822400999999445
650,5,0.5,50.0,-1.0,-1,1.0,8.22970099999975
651,5,0.5,100.0,1.0,1,1.0,2.392700999999761
652,5,0.5,50.0,1.0,1,1.0,0.6439009999999143
653,5,0.5,50.0,-1.0,1,0.0,10.456699999999728
654,5,0.8,50.0,-1.0,-1,1.0,3.141799999999421
655,5,0.5,50.0,-1.0,-1,1.0,4.535900999999285
656,5,0.5,50.0,1.0,1,1.0,3.610399999999572
657,5,0.5,100.0,-1.0,-1,1.0,7.662199999999302
658,5,0.5,100.0,1.0,1,1.0,6.4978009999995265
659,5,0.5,100.0,-1.0,-1,1.0,
660,5,0.5,50.0,-1.0,1,0.0,
661,5,0.6,50.0,-1.0,-1,1.0,24.952899999999772
662,5,0.5,50.0,-1.0,-1,1.0,1.1877009999998336
663,5,0.5,100.0,1.0,-1,0.0,1.4332009999998263
664,5,0.3,100.0,-1.0,1,0.0,19.068499999999403
665,5,0.4,100.0,-1.0,1,0.0,12.722400000000107
666,5,0.5,100.0,1.0,1,1.0,1.2800010000000839
667,5,0.5,100.0,-1.0,-1,1.0,14.828499999999622
668,5,0.5,50.0,-1.0,-1,1.0,3.022400999999718
669,5,0.5,100.0,-1.0,-1,1.0,0.10729999999966822
670,5,0.5,100.0,-1.0,-1,1.0,5.795701000000008
671,5,0.5,50.0,1.0,1,1.0,0.8062009999998736
672,5,0.5,100.0,-1.0,-1,1.0,11.085301000000072
673,5,0.5,50.0,1.0,1,1.0,9.123900999999933
674,5,0.5,100.0,1.0,1,1.0,10.430499999999483
675,5,0.5,100.0,-1.0,-1,1.0,23.220400999999583
676,5,0.5,50.0,1.0,1,1.0,0.792500999999902
677,5,0.5,100.0,-1.0,1,0.0,23.425100000000384
678,5,0.5,100.0,-1.0,1,0.0,38.85289999999986
679,5,0.6,100.0,1.0,1,1.0,1.2133000000003449
680,5,0.5,50.0,1.0,1,1.0,1.0923000000002503
681,5,0.5,50.0,-1.0,-1,1.0,0.4950010000002294
682,5,0.5,100.0,1.0,1,1.0,7.306301000000531
683,5,0.5,100.0,-1.0,1,0.0,4.713300999999774
684,5,0.8,100.0,-1.0,1,0.0,20.69470000000092
685,5,0.8,100.0,1.0,1,1.0,2.2767009999997754
686,5,0.5,50.0,-1.0,1,0.0,11.39560100000017
687,5,0.9,50.0,-1.0,1,0.0,7.524701000000277
688,5,0.9,50.0,1.0,1,1.0,2.020802000000913
689,5,0.5,50.0,-1.0,1,0.0,2.7662009999994552
690,5,0.9,50.0,-1.0,-1,1.0,6.9681010000012975
691,5,0.5,100.0,-1.0,1,0.0,6.414001000000098
692,5,0.9,100.0,-1.0,1,0.0,6.954501999999593
693,5,0.9,100.0,-1.0,-1,1.0,9.294801000000007
694,5,0.5,50.0,-1.0,1,0.0,21.848402000000533
695,5,0.8,50.0,-1.0,1,0.0,11.872401999999965
696,5,0.8,50.0,-1.0,1,0.0,2.9220010000008187
697,5,0.8,50.0,1.0,1,1.0,1.3301009999995586
698,5,0.5,100.0,-1.0,-1,1.0,5.916001000000506
699,5,0.5,50.0,1.0,1,1.0,7.073401000000558
700,5,0.5,50.0,1.0,1,1.0,4.693600999999944
701,5,0.5,100.0,-1.0,-1,1.0,16.551502000000255
702,5,0.5,100.0,-1.0,1,0.0,3.752902000001086
703,5,0.7,100.0,-1.0,1,0.0,4.059902000000875
704,5,0.8,100.0,-1.0,-1,1.0,7.864302000000862
705,5,0.5,50.0,1.0,1,1.0,13.18090200000097
706,5,0.5,50.0,1.0,1,1.0,2.6363010000013674
707,5,0.5,100.0,1.0,1,1.0,1.7485020000003715
708,5,0.5,50.0,1.0,1,1.0,3.503801000000749
709,5,0.5,50.0,-1.0,1,0.0,1.948301999999785
710,5,0.8,50.0,-1.0,1,0.0,1.2840020000012373
711,5,0.8,50.0,-1.0,1,0.0,10.382300999999643
712,5,0.9,50.0,-1.0,1,0.0,0.6318019999998796
713,5,0.9,50.0,-1.0,-1,1.0,1.4536020000014105
714,5,0.5,50.0,-1.0,1,0.0,13.015800999999556
715,5,0.9,50.0,-1.0,-1,1.0,22.521402000001217
716,5,0.5,100.0,-1.0,1,0.0,9.67040199999974
717,5,0.8,100.0,-1.0,1,0.0,31.573401999999987
718,5,0.8,100.0,1.0,1,1.0,11.364201000000321
719,5,0.5,100.0,-1.0,1,0.0,14.596601000001101
720,5,0.8,100.0,1.0,1,1.0,16.351300999999694
721,5,0.5,50.0,-1.0,-1,1.0,2.129001000000244
722,5,0.5,50.0,1.0,1,1.0,7.040801000000101
723,5,0.5,50.0,1.0,1,1.0,27.041802000000644
724,5,0.5,100.0,-1.0,1,0.0,5.439001000000644
725,5,0.8,100.0,-1.0,1,0.0,19.619101000000228
726,5,0.9,100.0,-1.0,1,0.0,16.262400999999954
1,6,0.5,50.0,-1.0,-1,1.0,4.8708
2,6,0.5,50.0,1.0,1,1.0,2.3553999999999995
3,6,0.5,50.0,1.0,1,1.0,3.247799999999998
4,6,0.5,100.0,-1.0,1,0.0,0.5743000000000009
5,6,0.9,100.0,-1.0,1,0.0,4.343800999999999
6,6,0.9,100.0,-1.0,-1,1.0,0.2203009999999992
7,6,0.5,100.0,-1.0,-1,1.0,3.6621000000000024
8,6,0.5,100.0,-1.0,-1,1.0,0.4049000000000049
9,6,0.5,50.0,-1.0,-1,1.0,0.5480000000000018
10,6,0.5,100.0,1.0,-1,0.0,0.5326010000000068
11,6,0.4,100.0,-1.0,-1,1.0,0.7334000000000032
12,6,0.5,100.0,1.0,1,1.0,0.09490099999999302
13,6,0.5,50.0,-1.0,1,0.0,0.7319010000000077
14,6,0.4,50.0,1.0,-1,0.0,5.458401000000009
15,6,0.3,50.0,1.0,1,1.0,6.888201000000009
16,6,0.5,100.0,1.0,1,1.0,0.3281000000000063
17,6,0.5,100.0,1.0,1,1.0,4.1800010000000185
18,6,0.5,50.0,1.0,1,1.0,0.047300000000007
19,6,0.5,100.0,-1.0,-1,1.0,0.2666009999999943
20,6,0.5,100.0,-1.0,-1,1.0,0.3136999999999972
21,6,0.5,50.0,-1.0,-1,1.0,1.5174009999999925
22,6,0.5,50.0,-1.0,-1,1.0,0.7386010000000169
23,6,0.5,50.0,-1.0,-1,1.0,0.2432009999999991
24,6,0.5,50.0,1.0,-1,0.0,0.11260100000001216
25,6,0.4,50.0,1.0,1,1.0,0.6274009999999919
26,6,0.5,100.0,-1.0,-1,1.0,2.3977010000000405
27,6,0.5,50.0,-1.0,-1,1.0,0.21990100000002144
28,6,0.5,50.0,-1.0,-1,1.0,0.2148000000000252
29,6,0.5,50.0,-1.0,1,0.0,1.7285000000000252
30,6,0.2,50.0,1.0,1,1.0,2.6637000000000057
31,6,0.5,50.0,-1.0,-1,1.0,0.23339999999998895
32,6,0.5,50.0,1.0,1,1.0,0.1741010000000074
33,6,0.5,100.0,-1.0,-1,1.0,1.1248010000000193
34,6,0.5,100.0,1.0,-1,0.0,0.2617010000000164
35,6,0.4,100.0,-1.0,-1,1.0,0.6880999999999915
36,6,0.5,100.0,-1.0,-1,1.0,0.4294010000000128
37,6,0.5,100.0,-1.0,-1,1.0,0.9392009999999971
38,6,0.5,100.0,-1.0,-1,1.0,0.351600000000019
39,6,0.5,50.0,-1.0,-1,1.0,0.5057009999999877
40,6,0.5,50.0,1.0,-1,0.0,1.330699999999979
41,6,0.1,50.0,1.0,1,1.0,3.8773009999999886
42,6,0.5,100.0,1.0,1,1.0,1.95500100000001
43,6,0.5,50.0,1.0,1,1.0,3.767300000000006
44,6,0.5,50.0,-1.0,-1,1.0,0.5942000000000007
45,6,0.5,100.0,-1.0,-1,1.0,0.7808009999999967
46,6,0.5,100.0,1.0,1,1.0,0.41840000000001965
47,6,0.5,100.0,-1.0,-1,1.0,0.4649000000000001
48,6,0.5,50.0,-1.0,-1,1.0,0.3702000000000112
49,6,0.5,100.0,-1.0,-1,1.0,0.5771000000000015
50,6,0.5,50.0,1.0,1,1.0,0.42010000000001924
51,6,0.5,50.0,1.0,1,1.0,0.8720010000000116
52,6,0.5,50.0,1.0,-1,0.0,2.168900000000008
53,6,0.4,50.0,-1.0,-1,1.0,0.7751010000000065
54,6,0.5,100.0,1.0,1,1.0,0.7146000000000186
55,6,0.5,50.0,1.0,1,1.0,0.9965000000000259
56,6,0.5,100.0,1.0,1,1.0,0.9689010000000167
57,6,0.5,100.0,1.0,-1,0.0,1.2548999999999637
58,6,0.5,100.0,1.0,1,1.0,0.7440010000000257
59,6,0.5,100.0,-1.0,-1,1.0,0.5264010000000212
60,6,0.5,100.0,-1.0,-1,1.0,0.2861010000000306
61,6,0.5,50.0,-1.0,-1,1.0,0.40919999999999845
62,6,0.5,100.0,1.0,-1,0.0,0.7178010000000086
63,6,0.4,100.0,1.0,-1,0.0,1.9109999999999445
64,6,0.4,100.0,1.0,1,1.0,0.5114010000000349
65,6,0.5,100.0,-1.0,1,0.0,0.3492999999999711
66,6,0.4,100.0,1.0,-1,0.0,3.7195009999999797
67,6,0.3,100.0,1.0,1,1.0,1.4307999999999765
68,6,0.5,100.0,-1.0,-1,1.0,0.3653009999999881
69,6,0.5,100.0,-1.0,-1,1.0,1.0342999999999734
70,6,0.5,100.0,1.0,-1,0.0,0.3866010000000415
71,6,0.3,100.0,1.0,1,1.0,0.3781010000000151
72,6,0.5,50.0,-1.0,-1,1.0,0.5225000000000364
73,6,0.5,100.0,1.0,-1,0.0,0.3136000000000081
74,6,0.4,100.0,-1.0,-1,1.0,0.19510099999996555
75,6,0.5,50.0,-1.0,1,0.0,1.7603999999999473
76,6,0.3,50.0,1.0,1,1.0,0.3881009999999492
77,6,0.5,100.0,1.0,-1,0.0,0.8838000000000079
78,6,0.3,100.0,-1.0,-1,1.0,0.4275000000000091
79,6,0.5,50.0,-1.0,1,0.0,0.11410100000000511
80,6,0.4,50.0,-1.0,-1,1.0,0.35240000000004557
81,6,0.5,50.0,-1.0,-1,1.0,0.39430000000004384
82,6,0.5,100.0,1.0,1,1.0,0.6053999999999746
83,6,0.5,100.0,1.0,1,1.0,0.5433010000000422
84,6,0.5,100.0,-1.0,-1,1.0,0.35950000000002547
85,6,0.5,100.0,-1.0,-1,1.0,0.5115010000000098
86,6,0.5,100.0,1.0,-1,0.0,1.7641999999999598
87,6,0.3,100.0,-1.0,-1,1.0,0.3454009999999812
88,6,0.5,100.0,-1.0,-1,1.0,0.36760100000003604
89,6,0.5,100.0,-1.0,-1,1.0,0.5426009999999906
90,6,0.5,100.0,1.0,-1,0.0,0.767701000000045
91,6,0.2,100.0,-1.0,1,0.0,7.410199999999975
92,6,0.3,100.0,-1.0,-1,1.0,2.419701000000032
93,6,0.5,50.0,1.0,-1,0.0,3.3144000000000347
94,6,0.1,50.0,1.0,1,1.0,4.295699999999954
95,6,0.5,50.0,1.0,1,1.0,2.4494000000000256
96,6,0.5,100.0,-1.0,-1,1.0,0.3021009999999933
97,6,0.5,100.0,-1.0,-1,1.0,0.35980099999994763
98,6,0.5,50.0,-1.0,1,0.0,5.040100999999993
99,6,0.4,50.0,1.0,1,1.0,4.345699999999965
100,6,0.5,50.0,1.0,1,1.0,3.011600000000044
101,6,0.5,100.0,-1.0,-1,1.0,0.40990099999999074
102,6,0.5,100.0,1.0,-1,0.0,4.016201000000024
103,6,0.5,100.0,1.0,1,1.0,3.5776010000000156
104,6,0.5,100.0,1.0,1,1.0,0.7699999999999818
105,6,0.5,50.0,1.0,-1,0.0,0.21070099999997183
106,6,0.5,50.0,-1.0,1,0.0,0.8228010000000268
107,6,0.6,50.0,-1.0,1,0.0,2.2697999999999183
108,6,0.7,50.0,-1.0,1,0.0,0.14820099999997183
109,6,0.7,50.0,1.0,1,1.0,3.2193000000000893
110,6,0.5,50.0,-1.0,1,0.0,2.0138999999999214
111,6,0.7,50.0,-1.0,1,0.0,3.0878999999999905
112,6,0.8,50.0,-1.0,-1,1.0,3.108101000000147
113,6,0.5,100.0,-1.0,-1,1.0,0.3934000000000424
114,6,0.5,50.0,-1.0,-1,1.0,0.4207010000000082
115,6,0.5,100.0,-1.0,-1,1.0,6.632600999999909
116,6,0.5,50.0,1.0,1,1.0,0.5373000000000729
117,6,0.5,50.0,1.0,1,1.0,0.8990000000000009
118,6,0.5,100.0,1.0,-1,0.0,0.23970100000008188
119,6,0.5,100.0,1.0,1,1.0,1.3604009999999107
120,6,0.5,100.0,-1.0,-1,1.0,0.07550100000003113
121,6,0.5,50.0,-1.0,-1,1.0,0.5040010000000166
122,6,0.5,100.0,1.0,1,1.0,0.39620000000002165
123,6,0.5,100.0,1.0,1,1.0,0.2603000000000293
124,6,0.5,50.0,-1.0,-1,1.0,0.24570100000005368
125,6,0.5,50.0,1.0,1,1.0,0.15980000000001837
126,6,0.5,50.0,1.0,1,1.0,3.986499999999978
127,6,0.5,100.0,-1.0,1,0.0,1.8052000000000135
128,6,0.6,100.0,-1.0,1,0.0,1.8976999999999862
129,6,0.7,100.0,-1.0,-1,1.0,0.9308999999999514
130,6,0.5,50.0,-1.0,-1,1.0,0.521300999999994
131,6,0.5,100.0,1.0,1,1.0,0.6533009999999422
132,6,0.5,50.0,1.0,1,1.0,2.7362009999999373
133,6,0.5,50.0,1.0,1,1.0,0.2501000000000886
134,6,0.5,100.0,1.0,1,1.0,0.9913999999999987
135,6,0.5,50.0,-1.0,-1,1.0,0.3806010000000697
136,6,0.5,100.0,-1.0,-1,1.0,0.5013999999999896
137,6,0.5,100.0,1.0,1,1.0,1.3847999999999274
138,6,0.5,50.0,-1.0,-1,1.0,0.4229000000000269
139,6,0.5,50.0,1.0,1,1.0,0.5765010000000075
140,6,0.5,100.0,-1.0,-1,1.0,0.8292010000000118
141,6,0.5,50.0,-1.0,-1,1.0,0.6027000000000271
142,6,0.5,100.0,1.0,-1,0.0,0.16750100000001567
143,6,0.4,100.0,-1.0,1,0.0,2.3763000000000147
144,6,0.4,100.0,-1.0,1,0.0,2.9355999999999085
145,6,0.4,100.0,-1.0,-1,1.0,1.436600999999996
146,6,0.5,50.0,-1.0,-1,1.0,2.8944009999999025
147,6,0.5,100.0,1.0,1,1.0,1.0607009999999946
148,6,0.5,50.0,-1.0,-1,1.0,0.2858009999999922
149,6,0.5,50.0,1.0,1,1.0,0.9072000000001026
150,6,0.5,100.0,-1.0,-1,1.0,0.26880000000005566
151,6,0.5,50.0,-1.0,1,0.0,0.4435999999999467
152,6,0.5,50.0,-1.0,1,0.0,2.498800000000074
153,6,0.6,50.0,1.0,-1,0.0,3.909601000000066
154,6,0.5,50.0,-1.0,1,0.0,11.811100000000124
155,6,0.5,50.0,-1.0,-1,1.0,0.5749009999999544
156,6,0.5,100.0,1.0,1,1.0,6.190001000000052
157,6,0.5,50.0,-1.0,1,0.0,7.891499999999951
158,6,0.6,50.0,1.0,-1,0.0,5.546801000000073
159,6,0.6,50.0,-1.0,1,0.0,7.46690000000001
160,6,0.6,50.0,1.0,1,1.0,8.897699999999872
161,6,0.5,50.0,-1.0,-1,1.0,6.1724009999999225
162,6,0.5,100.0,1.0,-1,0.0,0.2782999999999447
163,6,0.5,100.0,-1.0,1,0.0,9.391701000000012
164,6,0.6,100.0,1.0,1,1.0,4.654401000000007
165,6,0.5,50.0,1.0,1,1.0,3.7450000000000045
166,6,0.5,50.0,1.0,-1,0.0,0.3310999999999922
167,6,0.6,50.0,-1.0,1,0.0,6.943001000000095
168,6,0.6,50.0,-1.0,1,0.0,5.440200000000004
169,6,0.7,50.0,1.0,1,1.0,5.178500999999983
170,6,0.5,50.0,-1.0,-1,1.0,0.4063009999999849
171,6,0.5,100.0,-1.0,-1,1.0,0.28830100000004677
172,6,0.5,50.0,1.0,1,1.0,1.9484010000001035
173,6,0.5,100.0,1.0,-1,0.0,0.879901000000018
174,6,0.6,100.0,1.0,-1,0.0,1.6701009999999314
175,6,0.5,100.0,1.0,1,1.0,0.2654009999999971
176,6,0.5,50.0,-1.0,-1,1.0,0.45709999999996853
177,6,0.5,50.0,-1.0,1,0.0,3.9529999999999745
178,6,0.5,50.0,-1.0,1,0.0,2.1858009999999695
179,6,0.5,50.0,1.0,1,1.0,4.83090100000004
180,6,0.5,50.0,-1.0,1,0.0,3.9880000000000564
181,6,0.6,50.0,-1.0,1,0.0,5.222200999999927
182,6,0.7,50.0,-1.0,1,0.0,0.4314000000000533
183,6,0.7,50.0,-1.0,-1,1.0,6.653099999999995
184,6,0.5,50.0,1.0,1,1.0,1.167201000000091
185,6,0.5,100.0,1.0,1,1.0,0.05270000000007258
186,6,0.5,100.0,1.0,1,1.0,2.9855009999999993
187,6,0.5,100.0,-1.0,-1,1.0,0.3835999999998876
188,6,0.5,50.0,-1.0,1,0.0,0.2762000000000171
189,6,0.8,50.0,-1.0,-1,1.0,0.16849999999999454
190,6,0.5,50.0,-1.0,-1,1.0,0.3544999999999163
191,6,0.5,50.0,-1.0,1,0.0,0.12050099999987651
192,6,0.6,50.0,-1.0,-1,1.0,3.261299999999892
193,6,0.5,50.0,-1.0,-1,1.0,3.7294999999999163
194,6,0.5,50.0,-1.0,-1,1.0,0.5142009999999573
195,6,0.5,100.0,1.0,1,1.0,1.1130999999995765
196,6,0.5,50.0,-1.0,-1,1.0,0.6190009999997983
197,6,0.5,50.0,-1.0,-1,1.0,0.3629009999999653
198,6,0.5,100.0,-1.0,-1,1.0,0.5855009999997947
199,6,0.5,50.0,-1.0,-1,1.0,0.8548000000000684
200,6,0.5,100.0,1.0,-1,0.0,0.3006999999997788
201,6,0.2,100.0,1.0,-1,0.0,2.8759999999999764
202,6,0.1,100.0,1.0,1,1.0,4.277399999999716
203,6,0.5,100.0,1.0,-1,0.0,1.9147999999997865
204,6,0.2,100.0,1.0,-1,0.0,1.7500009999998838
205,6,0.2,100.0,1.0,1,1.0,0.338200999999799
206,6,0.5,100.0,1.0,1,1.0,0.17059999999992215
207,6,0.5,50.0,1.0,1,1.0,0.1431999999999789
208,6,0.5,50.0,-1.0,-1,1.0,0.5021010000000388
209,6,0.5,100.0,-1.0,-1,1.0,1.231400999999778
210,6,0.5,100.0,-1.0,-1,1.0,1.027100999999675
211,6,0.5,100.0,1.0,1,1.0,0.71550000000002
212,6,0.5,50.0,-1.0,-1,1.0,0.5544009999998707
213,6,0.5,50.0,1.0,1,1.0,0.3102999999998701
214,6,0.5,100.0,-1.0,-1,1.0,1.0697000000000116
215,6,0.5,50.0,1.0,1,1.0,0.7954009999998561
216,6,0.5,50.0,1.0,1,1.0,1.8880010000000311
217,6,0.5,100.0,-1.0,-1,1.0,0.3364010000000235
218,6,0.5,50.0,1.0,-1,0.0,0.1891009999999369
219,6,0.4,50.0,1.0,1,1.0,1.1816010000000006
220,6,0.5,100.0,1.0,1,1.0,0.4397999999998774
221,6,0.5,100.0,1.0,1,1.0,0.832501000000093
222,6,0.5,50.0,1.0,-1,0.0,0.23169999999981883
223,6,0.6,50.0,1.0,1,1.0,3.716800999999805
224,6,0.5,100.0,1.0,1,1.0,0.84170099999983
225,6,0.5,100.0,-1.0,-1,1.0,0.7842999999998028
226,6,0.5,50.0,1.0,1,1.0,0.7699999999999818
227,6,0.5,100.0,1.0,-1,0.0,2.4891999999999825
228,6,0.6,100.0,-1.0,-1,1.0,0.433500999999751
229,6,0.5,50.0,-1.0,1,0.0,3.26620099999991
230,6,0.6,50.0,1.0,1,1.0,1.2843999999997777
231,6,0.5,50.0,-1.0,-1,1.0,0.45299999999974716
232,6,0.5,100.0,1.0,1,1.0,0.36550000000011096
233,6,0.5,50.0,-1.0,-1,1.0,0.9579999999998563
234,6,0.5,100.0,1.0,1,1.0,0.6172010000000228
235,6,0.5,100.0,-1.0,-1,1.0,0.41270099999974263
236,6,0.5,50.0,-1.0,-1,1.0,0.8220009999997728
237,6,0.5,50.0,-1.0,-1,1.0,2.1810999999997875
238,6,0.5,100.0,-1.0,-1,1.0,0.8175999999998567
239,6,0.5,100.0,1.0,-1,0.0,2.736400999999887
240,6,0.3,100.0,1.0,1,1.0,1.1079999999999472
241,6,0.5,50.0,-1.0,-1,1.0,0.42709999999965476
242,6,0.5,100.0,1.0,1,1.0,1.746300999999903
243,6,0.5,100.0,1.0,1,1.0,0.49850100000003295
