trial_num,session_num,stim_probability_left,contrast,position,response_choice,trial_correct,reaction_time
1,1,0.8,25.0,-1.0,-1,1.0,0.6678
2,1,0.8,12.5,1.0,-1,0.0,6.079
3,1,0.8,12.5,-1.0,1,0.0,2.7200999999999986
4,1,0.8,25.0,-1.0,-1,1.0,0.7562999999999995
5,1,0.8,100.0,-1.0,-1,1.0,0.7830999999999975
6,1,0.8,25.0,-1.0,1,0.0,3.671199999999999
7,1,0.8,100.0,1.0,1,1.0,3.1942999999999984
8,1,0.8,12.5,-1.0,1,0.0,5.636599999999994
9,1,0.8,0.0,-1.0,1,0.0,6.954198999999996
10,1,0.8,6.25,1.0,1,1.0,2.2094000000000023
11,1,0.8,100.0,1.0,1,1.0,1.0752999999999986
12,1,0.8,6.25,1.0,1,1.0,1.814700000000002
13,1,0.8,12.5,-1.0,1,0.0,3.3985999999999876
14,1,0.8,12.5,-1.0,1,0.0,3.7320999999999884
15,1,0.8,100.0,-1.0,1,0.0,1.3114999999999952
16,1,0.8,100.0,-1.0,-1,1.0,0.30759999999999366
17,1,0.8,12.5,-1.0,1,0.0,1.523300000000006
18,1,0.8,100.0,1.0,1,1.0,6.56280000000001
19,1,0.8,6.25,-1.0,1,0.0,2.0542999999999836
20,1,0.8,100.0,-1.0,1,0.0,0.13249999999999318
21,1,0.8,100.0,-1.0,-1,1.0,6.746700000000004
22,1,0.8,25.0,-1.0,1,0.0,2.797499999999985
23,1,0.8,25.0,-1.0,-1,1.0,0.8998999999999882
24,1,0.8,100.0,-1.0,-1,1.0,0.7719999999999914
25,1,0.8,0.0,-1.0,1,0.0,2.779299999999992
26,1,0.8,6.25,1.0,1,1.0,4.602700000000013
27,1,0.8,6.25,-1.0,1,0.0,7.175400000000025
28,1,0.8,100.0,1.0,1,1.0,0.5104000000000326
29,1,0.8,0.0,1.0,1,1.0,6.686800000000005
30,1,0.8,12.5,-1.0,1,0.0,6.469499000000013
31,1,0.8,100.0,1.0,1,1.0,0.6137999999999977
32,1,0.8,6.25,-1.0,1,0.0,6.02109999999999
33,1,0.8,25.0,-1.0,1,0.0,17.089699999999993
34,1,0.8,12.5,-1.0,1,0.0,6.239300000000014
35,1,0.8,100.0,-1.0,1,0.0,8.500000000000028
36,1,0.8,0.0,-1.0,1,0.0,6.051800000000014
37,1,0.8,12.5,-1.0,1,0.0,17.15300000000002
38,1,0.8,100.0,1.0,1,1.0,10.163100000000014
39,1,0.8,12.5,-1.0,1,0.0,4.0837999999999965
40,1,0.8,12.5,-1.0,1,0.0,9.394200000000012
41,1,0.8,25.0,-1.0,1,0.0,8.154699999999991
42,1,0.8,25.0,-1.0,1,0.0,10.14089899999999
43,1,0.8,25.0,-1.0,1,0.0,13.27920000000006
44,1,0.8,6.25,-1.0,1,0.0,26.77370000000002
45,1,0.8,6.25,-1.0,1,0.0,9.910000000000025
46,1,0.8,6.25,-1.0,1,0.0,40.946500000000015
47,1,0.8,6.25,-1.0,1,0.0,43.60680000000008
48,1,0.8,6.25,-1.0,1,0.0,7.8781000000000745
49,1,0.8,100.0,-1.0,-1,1.0,10.156599999999969
50,1,0.8,6.25,-1.0,1,0.0,7.059199999999976
51,1,0.8,100.0,-1.0,1,0.0,31.504000000000076
52,1,0.8,12.5,1.0,1,1.0,14.184099999999944
53,1,0.8,0.0,-1.0,1,0.0,5.930600000000027
54,1,0.8,100.0,-1.0,-1,1.0,0.9713010000000395
55,1,0.8,100.0,-1.0,-1,1.0,1.9706009999999878
56,1,0.8,6.25,-1.0,1,0.0,5.687600999999972
57,1,0.8,6.25,-1.0,1,0.0,3.2464009999999917
58,1,0.8,100.0,-1.0,-1,1.0,0.7839009999999007
59,1,0.8,25.0,-1.0,1,0.0,2.269401000000016
60,1,0.8,6.25,-1.0,1,0.0,3.0057010000000446
61,1,0.8,6.25,-1.0,-1,1.0,0.6631009999999833
62,1,0.8,12.5,-1.0,1,0.0,5.496601000000055
63,1,0.8,12.5,-1.0,1,0.0,8.645401000000106
64,1,0.8,100.0,-1.0,-1,1.0,5.673801000000026
65,1,0.8,25.0,-1.0,-1,1.0,4.991900999999984
66,1,0.2,25.0,1.0,1,1.0,5.374501000000009
67,1,0.2,100.0,1.0,1,1.0,5.447801000000027
68,1,0.2,6.25,1.0,1,1.0,2.482800999999995
69,1,0.2,6.25,-1.0,1,0.0,7.115500999999995
70,1,0.2,25.0,-1.0,-1,1.0,0.43840099999999893
71,1,0.2,6.25,1.0,1,1.0,8.93560100000002
72,1,0.2,25.0,1.0,1,1.0,0.7055010000000266
73,1,0.2,12.5,1.0,1,1.0,3.6979010000000017
74,1,0.2,6.25,1.0,1,1.0,3.3452009999999746
75,1,0.2,100.0,1.0,1,1.0,6.00320099999999
76,1,0.2,12.5,-1.0,1,0.0,3.485001000000011
77,1,0.2,12.5,1.0,1,1.0,0.5127009999999927
78,1,0.2,12.5,1.0,1,1.0,3.302801000000045
79,1,0.2,12.5,1.0,1,1.0,4.564601000000039
80,1,0.2,100.0,-1.0,-1,1.0,0.4223010000000613
81,1,0.2,6.25,-1.0,1,0.0,1.642800999999963
82,1,0.2,0.0,1.0,1,1.0,5.353501000000051
83,1,0.2,0.0,1.0,1,1.0,9.86420099999998
84,1,0.2,25.0,1.0,1,1.0,3.5405009999999493
85,1,0.2,25.0,1.0,1,1.0,2.1412010000000237
86,1,0.2,6.25,1.0,1,1.0,6.460501000000022
87,1,0.2,6.25,-1.0,1,0.0,7.280900999999972
88,1,0.2,6.25,1.0,1,1.0,4.034701000000041
89,1,0.2,0.0,1.0,1,1.0,1.656800999999973
90,1,0.2,25.0,1.0,1,1.0,7.224901000000045
91,1,0.2,12.5,1.0,1,1.0,1.700901000000158
92,1,0.2,0.0,1.0,1,1.0,4.536700999999994
93,1,0.2,12.5,1.0,1,1.0,2.937800999999922
94,1,0.2,6.25,-1.0,1,0.0,2.3195009999999456
95,1,0.2,6.25,1.0,1,1.0,0.6688010000000304
96,1,0.2,6.25,-1.0,1,0.0,2.8417010000000573
97,1,0.2,100.0,-1.0,-1,1.0,0.8582010000001219
98,1,0.2,100.0,1.0,1,1.0,0.3668999999999869
99,1,0.2,0.0,-1.0,1,0.0,5.5789009999999735
100,1,0.2,100.0,1.0,1,1.0,0.2597010000000637
101,1,0.2,12.5,1.0,1,1.0,4.705101000000013
102,1,0.2,12.5,1.0,1,1.0,2.656700999999998
103,1,0.2,100.0,1.0,1,1.0,0.7742010000000619
104,1,0.2,12.5,1.0,1,1.0,1.289500999999973
105,1,0.2,6.25,1.0,1,1.0,7.095501000000013
106,1,0.2,6.25,1.0,1,1.0,2.277001000000041
107,1,0.2,6.25,1.0,1,1.0,0.5783010000000104
108,1,0.2,100.0,1.0,1,1.0,4.981600999999955
109,1,0.2,12.5,1.0,1,1.0,6.320501000000036
110,1,0.2,6.25,1.0,1,1.0,5.292701000000079
111,1,0.2,12.5,1.0,1,1.0,0.6697010000001455
112,1,0.2,100.0,1.0,1,1.0,2.1881010000000742
113,1,0.2,0.0,1.0,1,1.0,2.2420009999999593
114,1,0.2,100.0,1.0,1,1.0,0.3624010000000908
115,1,0.2,6.25,1.0,1,1.0,6.321700999999962
116,1,0.2,6.25,-1.0,1,0.0,4.482100999999943
117,1,0.2,100.0,1.0,1,1.0,9.696700999999962
118,1,0.2,0.0,1.0,1,1.0,4.678301000000033
119,1,0.8,25.0,-1.0,1,0.0,12.110200999999961
120,1,0.8,25.0,-1.0,-1,1.0,0.5485010000001012
121,1,0.8,0.0,1.0,1,1.0,10.353601000000026
122,1,0.8,100.0,-1.0,1,0.0,1.5450009999999565
123,1,0.8,6.25,-1.0,1,0.0,8.063601000000062
124,1,0.8,6.25,1.0,1,1.0,0.4407010000001037
125,1,0.8,0.0,-1.0,1,0.0,11.675901000000067
126,1,0.8,12.5,1.0,1,1.0,6.153200999999967
127,1,0.8,25.0,-1.0,1,0.0,14.83230100000003
128,1,0.8,6.25,-1.0,1,0.0,6.36760100000015
129,1,0.8,12.5,-1.0,1,0.0,18.428200999999945
130,1,0.8,100.0,-1.0,1,0.0,12.79830099999981
131,1,0.8,100.0,-1.0,1,0.0,31.46020099999987
132,1,0.8,100.0,-1.0,1,0.0,39.93280099999993
133,1,0.8,25.0,-1.0,1,0.0,8.666401000000178
134,1,0.8,6.25,-1.0,1,0.0,1.2338009999998576
135,1,0.8,6.25,1.0,1,1.0,10.661501000000044
136,1,0.8,6.25,1.0,1,1.0,7.037801000000172
137,1,0.8,100.0,-1.0,-1,1.0,0.6318009999999958
138,1,0.8,12.5,-1.0,1,0.0,0.5612009999999827
139,1,0.8,12.5,-1.0,1,0.0,5.222801000000118
140,1,0.8,25.0,1.0,1,1.0,1.29420099999993
141,1,0.8,12.5,-1.0,-1,1.0,5.349901000000045
142,1,0.8,6.25,-1.0,1,0.0,0.7943010000001323
143,1,0.8,25.0,1.0,1,1.0,0.2596009999999751
144,1,0.8,25.0,-1.0,1,0.0,5.045800999999983
145,1,0.8,12.5,-1.0,1,0.0,15.560300999999981
146,1,0.8,100.0,1.0,1,1.0,0.4803999999999178
147,1,0.8,0.0,-1.0,1,0.0,18.98690099999999
148,1,0.8,6.25,-1.0,1,0.0,5.773001000000022
149,1,0.8,25.0,-1.0,1,0.0,5.167800999999827
150,1,0.8,12.5,-1.0,1,0.0,36.63470100000018
151,1,0.8,0.0,-1.0,1,0.0,23.316400999999814
152,1,0.8,100.0,-1.0,1,0.0,10.188100999999733
153,1,0.8,25.0,-1.0,1,0.0,2.11720100000025
154,1,0.8,25.0,-1.0,1,0.0,41.54600099999993
155,1,0.8,0.0,-1.0,1,0.0,24.992701000000125
156,1,0.8,0.0,-1.0,1,0.0,0.20900099999994382
157,1,0.8,25.0,-1.0,1,0.0,7.3757009999999354
158,1,0.8,100.0,1.0,1,1.0,3.756100999999944
159,1,0.8,25.0,-1.0,1,0.0,2.023801000000276
160,1,0.8,6.25,1.0,1,1.0,5.642301000000089
161,1,0.8,6.25,-1.0,1,0.0,9.169900999999754
162,1,0.8,12.5,-1.0,1,0.0,9.010001000000102
163,1,0.8,100.0,-1.0,-1,1.0,0.8590010000000348
164,1,0.8,6.25,-1.0,1,0.0,18.152001000000155
165,1,0.8,6.25,-1.0,1,0.0,49.66510100000005
166,1,0.8,6.25,-1.0,1,0.0,12.39490099999989
167,1,0.8,0.0,1.0,1,1.0,40.737000999999964
168,1,0.8,6.25,-1.0,1,0.0,25.36930099999995
169,1,0.8,25.0,-1.0,1,0.0,3.1012009999999464
170,1,0.8,25.0,1.0,1,1.0,16.785800999999992
171,1,0.8,12.5,1.0,1,1.0,0.23040099999980157
172,1,0.8,6.25,1.0,1,1.0,0.41600100000005114
173,1,0.2,6.25,1.0,1,1.0,0.34880100000009406
174,1,0.2,12.5,1.0,1,1.0,0.38540100000000166
175,1,0.2,25.0,-1.0,-1,1.0,0.5107009999999264
176,1,0.2,6.25,1.0,1,1.0,3.7379009999999653
177,1,0.2,12.5,1.0,1,1.0,0.4728010000001177
178,1,0.2,25.0,-1.0,1,0.0,8.427900999999792
179,1,0.2,12.5,1.0,1,1.0,3.344301000000087
180,1,0.2,25.0,1.0,1,1.0,10.709300999999869
181,1,0.2,6.25,1.0,1,1.0,0.4854010000001381
182,1,0.2,25.0,1.0,1,1.0,11.45290100000011
183,1,0.2,25.0,1.0,1,1.0,4.308501000000206
184,1,0.2,12.5,1.0,1,1.0,0.31700099999989106
185,1,0.2,12.5,-1.0,1,0.0,0.1567010000001119
186,1,0.2,6.25,1.0,1,1.0,0.628400000000056
187,1,0.2,0.0,1.0,1,1.0,5.997900999999956
188,1,0.2,0.0,-1.0,1,0.0,3.1587010000000646
189,1,0.2,100.0,1.0,1,1.0,0.420900999999958
190,1,0.2,12.5,1.0,1,1.0,4.043101000000206
191,1,0.2,100.0,1.0,1,1.0,0.32750099999998383
192,1,0.2,100.0,1.0,1,1.0,0.3235010000000784
193,1,0.2,25.0,1.0,1,1.0,0.27640100000007806
194,1,0.2,6.25,1.0,1,1.0,3.922501000000011
195,1,0.2,12.5,1.0,1,1.0,4.289200999999821
196,1,0.2,25.0,1.0,1,1.0,0.3805010000000948
197,1,0.2,25.0,1.0,1,1.0,4.3562010000000555
198,1,0.2,6.25,1.0,1,1.0,1.07420100000013
199,1,0.2,12.5,1.0,1,1.0,0.370401000000129
200,1,0.2,6.25,1.0,1,1.0,4.075301000000081
201,1,0.2,6.25,1.0,1,1.0,2.863501000000042
202,1,0.2,12.5,1.0,1,1.0,4.26860099999999
203,1,0.2,6.25,1.0,1,1.0,0.25050099999998565
204,1,0.2,100.0,1.0,1,1.0,0.22620099999994636
205,1,0.2,12.5,1.0,1,1.0,0.3544010000000526
206,1,0.2,25.0,1.0,1,1.0,1.307501000000002
207,1,0.2,25.0,1.0,-1,0.0,0.33330099999989216
208,1,0.2,25.0,1.0,1,1.0,5.498301000000083
209,1,0.2,100.0,1.0,1,1.0,0.2859009999999671
210,1,0.2,25.0,1.0,1,1.0,2.0906009999998787
211,1,0.2,100.0,1.0,1,1.0,1.5788009999998849
212,1,0.2,6.25,1.0,1,1.0,10.44440099999997
213,1,0.2,100.0,1.0,1,1.0,15.032701000000088
214,1,0.2,25.0,1.0,1,1.0,10.897600999999895
215,1,0.2,6.25,1.0,1,1.0,2.987101000000166
216,1,0.2,25.0,1.0,1,1.0,0.7190009999999347
217,1,0.2,25.0,1.0,1,1.0,10.837301000000025
218,1,0.2,25.0,1.0,1,1.0,48.8185010000002
219,1,0.2,6.25,1.0,1,1.0,0.7495009999997819
220,1,0.2,6.25,1.0,1,1.0,22.085501000000022
221,1,0.2,25.0,1.0,1,1.0,29.523401000000376
222,1,0.2,6.25,1.0,1,1.0,7.716200999999728
223,1,0.2,25.0,1.0,1,1.0,8.763401000000158
224,1,0.2,0.0,-1.0,1,0.0,22.84610100000009
226,1,0.2,12.5,1.0,1,1.0,12.405500999999731
227,1,0.2,6.25,-1.0,1,0.0,29.829601000000366
228,1,0.2,12.5,1.0,1,1.0,0.9466010000001006
229,1,0.2,25.0,1.0,1,1.0,1.592000999999982
230,1,0.2,0.0,-1.0,1,0.0,4.3241009999997
231,1,0.2,12.5,1.0,1,1.0,1.002400999999736
232,1,0.2,6.25,1.0,1,1.0,11.744501000000128
233,1,0.2,6.25,1.0,1,1.0,1.0772010000000591
234,1,0.2,100.0,-1.0,1,0.0,22.749500999999782
235,1,0.2,25.0,1.0,1,1.0,15.34840099999974
236,1,0.8,100.0,-1.0,1,0.0,0.6767009999998663
237,1,0.8,6.25,-1.0,1,0.0,20.998601000000235
238,1,0.8,25.0,-1.0,1,0.0,37.62180100000023
239,1,0.8,100.0,-1.0,1,0.0,12.545101000000159
240,1,0.8,100.0,1.0,1,1.0,0.3869009999998525
241,1,0.8,12.5,-1.0,1,0.0,9.733900999999605
242,1,0.8,6.25,-1.0,1,0.0,37.282200999999986
243,1,0.8,6.25,-1.0,1,0.0,31.046300999999858
244,1,0.8,12.5,-1.0,1,0.0,12.875401000000238
245,1,0.8,25.0,-1.0,1,0.0,48.18070099999977
246,1,0.8,25.0,-1.0,1,0.0,48.504201000000194
247,1,0.8,6.25,-1.0,1,0.0,4.191401000000042
1,2,0.8,6.25,-1.0,-1,1.0,0.4078999999999997
2,2,0.8,6.25,1.0,-1,0.0,6.495700000000001
3,2,0.8,6.25,-1.0,-1,1.0,2.885200000000001
4,2,0.8,100.0,-1.0,1,0.0,6.2635000000000005
5,2,0.8,100.0,-1.0,1,0.0,5.515499999999999
6,2,0.8,6.25,-1.0,1,0.0,3.491100000000003
7,2,0.8,6.25,-1.0,1,0.0,1.5173000000000059
8,2,0.8,12.5,1.0,1,1.0,0.38300000000000267
9,2,0.8,6.25,-1.0,1,0.0,0.2319000000000102
10,2,0.8,0.0,-1.0,1,0.0,3.0642000000000067
11,2,0.8,25.0,1.0,1,1.0,0.35829999999999984
12,2,0.8,25.0,1.0,1,1.0,0.3218999999999923
13,2,0.8,6.25,-1.0,1,0.0,1.803200000000004
14,2,0.8,0.0,-1.0,1,0.0,2.6071000000000026
15,2,0.8,6.25,1.0,1,1.0,0.04759999999998854
16,2,0.8,0.0,-1.0,1,0.0,2.8637999999999977
17,2,0.8,12.5,-1.0,-1,1.0,0.22589999999998156
18,2,0.8,6.25,-1.0,-1,1.0,0.30809999999999604
19,2,0.8,25.0,-1.0,-1,1.0,0.26600000000000534
20,2,0.8,100.0,-1.0,-1,1.0,0.24230000000000018
21,2,0.8,0.0,1.0,-1,0.0,1.592499999999987
22,2,0.8,12.5,-1.0,-1,1.0,0.3848999999999876
23,2,0.8,100.0,-1.0,-1,1.0,0.21119999999999095
24,2,0.8,100.0,-1.0,-1,1.0,0.2044999999999817
25,2,0.8,12.5,-1.0,-1,1.0,0.2523000000000053
26,2,0.8,25.0,1.0,1,1.0,0.4177999999999855
27,2,0.8,12.5,-1.0,-1,1.0,0.29999999999999716
28,2,0.8,25.0,-1.0,1,0.0,2.281899999999993
29,2,0.8,25.0,-1.0,-1,1.0,0.20879999999999654
30,2,0.8,25.0,-1.0,-1,1.0,0.25090000000000146
31,2,0.8,25.0,-1.0,-1,1.0,0.48099999999999454
32,2,0.8,100.0,-1.0,-1,1.0,0.21690000000000964
33,2,0.8,100.0,-1.0,-1,1.0,0.2745999999999924
34,2,0.8,6.25,1.0,-1,0.0,0.35249999999999204
35,2,0.8,100.0,1.0,1,1.0,0.07110000000000127
36,2,0.8,6.25,-1.0,1,0.0,0.18829999999999814
37,2,0.8,100.0,-1.0,-1,1.0,0.24389999999999645
38,2,0.8,12.5,-1.0,-1,1.0,0.301400000000001
39,2,0.8,100.0,-1.0,-1,1.0,0.2078000000000202
40,2,0.8,12.5,-1.0,-1,1.0,0.2600000000000193
41,2,0.8,6.25,-1.0,-1,1.0,0.16460000000000719
42,2,0.8,12.5,-1.0,-1,1.0,1.2650000000000148
43,2,0.8,12.5,1.0,1,1.0,0.2506999999999948
44,2,0.8,100.0,-1.0,-1,1.0,0.17430000000001655
45,2,0.8,6.25,-1.0,-1,1.0,1.0124999999999886
46,2,0.8,100.0,-1.0,-1,1.0,0.2523000000000195
47,2,0.8,0.0,-1.0,-1,1.0,0.9832999999999856
48,2,0.8,100.0,-1.0,-1,1.0,0.25260000000002947
49,2,0.8,25.0,-1.0,-1,1.0,0.5678000000000054
50,2,0.8,12.5,1.0,1,1.0,0.3136000000000081
51,2,0.8,12.5,-1.0,1,0.0,0.10800000000000409
52,2,0.8,25.0,-1.0,1,0.0,0.06409999999999627
53,2,0.8,6.25,-1.0,-1,1.0,0.4188000000000329
54,2,0.8,100.0,-1.0,-1,1.0,0.12050000000002115
55,2,0.8,0.0,-1.0,1,0.0,1.0970000000000084
56,2,0.8,6.25,-1.0,-1,1.0,0.24190000000001532
57,2,0.8,25.0,-1.0,-1,1.0,0.8576000000000192
58,2,0.8,0.0,-1.0,1,0.0,0.14220000000003097
59,2,0.8,25.0,-1.0,-1,1.0,0.22340000000002647
60,2,0.8,100.0,-1.0,-1,1.0,0.9297000000000253
61,2,0.8,12.5,-1.0,-1,1.0,0.18180000000000973
62,2,0.2,6.25,-1.0,-1,1.0,0.2021000000000015
63,2,0.2,25.0,1.0,1,1.0,1.3046999999999969
64,2,0.2,100.0,-1.0,-1,1.0,0.2857999999999947
65,2,0.2,25.0,1.0,1,1.0,4.711200000000019
66,2,0.2,25.0,-1.0,-1,1.0,0.15170000000000528
67,2,0.2,12.5,1.0,1,1.0,0.6752999999999929
68,2,0.2,100.0,1.0,1,1.0,1.5818000000000438
69,2,0.2,0.0,-1.0,1,0.0,0.3217999999999961
70,2,0.2,25.0,1.0,1,1.0,0.41030000000000655
71,2,0.2,100.0,1.0,1,1.0,0.38900000000001
72,2,0.2,0.0,1.0,-1,0.0,0.10529999999999973
73,2,0.2,0.0,1.0,1,1.0,0.7536000000000058
74,2,0.2,25.0,1.0,1,1.0,0.7316999999999894
75,2,0.2,12.5,1.0,1,1.0,0.19159999999993715
76,2,0.2,12.5,1.0,1,1.0,1.386000000000024
77,2,0.2,25.0,-1.0,1,0.0,1.4324000000000296
78,2,0.2,6.25,1.0,1,1.0,0.9064999999999941
79,2,0.2,25.0,-1.0,-1,1.0,0.3131000000000199
80,2,0.2,12.5,1.0,1,1.0,2.585800000000006
81,2,0.2,12.5,1.0,1,1.0,0.1026000000000522
82,2,0.2,25.0,1.0,1,1.0,0.26080000000001746
83,2,0.2,25.0,1.0,1,1.0,0.07449999999994361
84,2,0.2,12.5,-1.0,-1,1.0,0.433400000000006
85,2,0.2,6.25,1.0,1,1.0,0.4877999999999929
86,2,0.2,6.25,1.0,1,1.0,0.2854000000000383
87,2,0.2,25.0,-1.0,-1,1.0,0.6725999999999885
88,2,0.2,100.0,1.0,1,1.0,0.030100000000004457
89,2,0.2,12.5,-1.0,1,0.0,1.7440000000000282
90,2,0.2,25.0,1.0,1,1.0,0.0331000000000472
91,2,0.2,12.5,1.0,1,1.0,0.41440000000000055
92,2,0.2,25.0,1.0,1,1.0,0.25480000000004566
93,2,0.2,0.0,1.0,1,1.0,0.4551000000000158
94,2,0.2,100.0,-1.0,-1,1.0,0.2792999999999779
95,2,0.2,100.0,-1.0,1,0.0,0.13519999999999754
96,2,0.2,12.5,1.0,1,1.0,1.5604000000000156
97,2,0.2,12.5,1.0,1,1.0,2.438500000000033
98,2,0.2,12.5,1.0,1,1.0,0.06620000000003756
99,2,0.2,25.0,1.0,1,1.0,0.4818000000000211
100,2,0.2,6.25,-1.0,1,0.0,0.6372000000000071
101,2,0.2,100.0,-1.0,-1,1.0,0.23820000000000618
102,2,0.2,6.25,-1.0,1,0.0,1.2128999999999905
103,2,0.2,0.0,-1.0,1,0.0,1.971900000000005
104,2,0.2,0.0,1.0,1,1.0,3.90259999999995
105,2,0.2,25.0,1.0,1,1.0,2.692299999999989
106,2,0.2,25.0,1.0,1,1.0,0.22409899999996696
107,2,0.2,100.0,1.0,1,1.0,0.11849999999998317
108,2,0.2,25.0,1.0,1,1.0,1.2393000000000143
109,2,0.2,6.25,1.0,1,1.0,0.37990000000002055
110,2,0.2,6.25,1.0,-1,0.0,0.3335999999999899
111,2,0.8,12.5,-1.0,1,0.0,0.33299999999997
112,2,0.8,12.5,1.0,1,1.0,2.639700000000005
113,2,0.8,100.0,-1.0,-1,1.0,0.5563999999999965
114,2,0.8,6.25,1.0,1,1.0,1.1090000000000373
115,2,0.8,6.25,-1.0,1,0.0,0.0724999999999909
116,2,0.8,25.0,-1.0,1,0.0,0.16669999999999163
117,2,0.8,25.0,-1.0,-1,1.0,0.37819999999999254
118,2,0.8,12.5,1.0,1,1.0,0.3391000000000304
119,2,0.8,100.0,1.0,1,1.0,0.40890000000007376
120,2,0.8,25.0,-1.0,-1,1.0,0.3975000000000364
121,2,0.8,25.0,1.0,1,1.0,0.46750000000002956
122,2,0.8,25.0,1.0,1,1.0,0.3269000000000233
123,2,0.8,12.5,-1.0,-1,1.0,0.415300000000002
124,2,0.8,6.25,-1.0,1,0.0,1.4782999999999902
125,2,0.8,6.25,-1.0,1,0.0,1.928699999999992
126,2,0.8,100.0,-1.0,-1,1.0,0.33299999999997
127,2,0.8,100.0,-1.0,-1,1.0,0.34600000000000364
128,2,0.8,100.0,-1.0,1,0.0,3.3933999999999855
129,2,0.8,25.0,-1.0,-1,1.0,0.184599999999989
130,2,0.8,12.5,-1.0,1,0.0,0.6263999999999896
131,2,0.8,100.0,1.0,-1,0.0,0.127900000000011
132,2,0.8,100.0,-1.0,-1,1.0,0.2966999999999871
133,2,0.8,0.0,-1.0,1,0.0,0.8909000000000447
134,2,0.8,25.0,-1.0,-1,1.0,0.26439999999996644
135,2,0.8,25.0,-1.0,-1,1.0,0.30539999999996326
136,2,0.8,6.25,-1.0,-1,1.0,0.6067000000000462
137,2,0.8,12.5,1.0,1,1.0,0.48210000000000264
138,2,0.8,0.0,1.0,-1,0.0,1.9101999999999748
139,2,0.8,25.0,-1.0,-1,1.0,0.1985000000000241
140,2,0.8,12.5,-1.0,-1,1.0,1.1551000000000045
141,2,0.8,25.0,-1.0,-1,1.0,0.6808000000000334
142,2,0.8,25.0,-1.0,-1,1.0,0.37999999999988177
143,2,0.8,6.25,-1.0,-1,1.0,0.5745999999999185
144,2,0.8,25.0,-1.0,-1,1.0,0.2987999999999147
145,2,0.8,12.5,1.0,1,1.0,1.8020999999999958
146,2,0.8,100.0,-1.0,-1,1.0,0.3186999999999216
147,2,0.8,6.25,-1.0,-1,1.0,0.29169999999999163
148,2,0.2,12.5,1.0,1,1.0,0.9049999999999727
149,2,0.2,25.0,-1.0,-1,1.0,0.29309999999998126
150,2,0.2,25.0,1.0,1,1.0,1.1204999999999927
151,2,0.2,100.0,1.0,1,1.0,0.3718989999998712
152,2,0.2,12.5,1.0,-1,0.0,8.547300000000064
153,2,0.2,25.0,-1.0,-1,1.0,0.2643999999999096
154,2,0.2,0.0,1.0,1,1.0,0.23519999999984975
155,2,0.2,100.0,1.0,1,1.0,0.5548999999999751
156,2,0.2,12.5,1.0,1,1.0,0.25270000000000437
157,2,0.2,6.25,1.0,1,1.0,0.3893999999999096
158,2,0.2,6.25,1.0,1,1.0,0.3362999999999374
159,2,0.2,100.0,1.0,1,1.0,0.30769999999995434
160,2,0.2,6.25,1.0,1,1.0,0.6373999999998432
161,2,0.2,6.25,-1.0,-1,1.0,0.9429000000000087
162,2,0.2,25.0,1.0,1,1.0,0.9058999999999742
163,2,0.2,25.0,1.0,1,1.0,0.5714999999999009
164,2,0.2,100.0,1.0,1,1.0,0.28359999999997854
165,2,0.2,12.5,1.0,1,1.0,1.8699999999998909
166,2,0.2,100.0,1.0,1,1.0,0.31150000000002365
167,2,0.2,100.0,1.0,1,1.0,0.5906999999999698
168,2,0.2,100.0,1.0,1,1.0,0.6152999999999338
169,2,0.2,100.0,1.0,1,1.0,0.2747999999999138
170,2,0.2,100.0,1.0,1,1.0,0.2462999999999056
171,2,0.2,6.25,1.0,1,1.0,0.8048000000000002
172,2,0.2,100.0,-1.0,-1,1.0,0.24610000000006949
173,2,0.2,12.5,1.0,1,1.0,0.40949999999998
174,2,0.2,100.0,1.0,1,1.0,0.14009999999996126
175,2,0.2,6.25,1.0,1,1.0,0.3613000000000284
176,2,0.2,25.0,1.0,1,1.0,0.6476999999999862
177,2,0.2,6.25,-1.0,-1,1.0,0.5853000000000748
178,2,0.2,6.25,1.0,1,1.0,0.6776000000000977
179,2,0.2,6.25,-1.0,1,0.0,1.2961999999998852
180,2,0.2,25.0,1.0,1,1.0,0.2479999999999336
181,2,0.2,0.0,1.0,1,1.0,0.7677999999999656
182,2,0.2,25.0,1.0,1,1.0,0.5223999999999478
183,2,0.2,25.0,-1.0,-1,1.0,0.31910000000004857
184,2,0.2,25.0,1.0,1,1.0,1.017099999999914
185,2,0.2,6.25,-1.0,-1,1.0,0.3711999999999307
186,2,0.2,25.0,1.0,1,1.0,0.2515999999999394
187,2,0.2,0.0,1.0,1,1.0,0.8489999999999327
188,2,0.2,100.0,1.0,1,1.0,2.5174999999999272
189,2,0.2,12.5,1.0,1,1.0,1.7358000000000402
190,2,0.2,12.5,1.0,1,1.0,0.12809999999990396
191,2,0.2,100.0,1.0,1,1.0,1.5430000000000064
192,2,0.2,6.25,-1.0,-1,1.0,2.102200000000039
193,2,0.2,0.0,1.0,-1,0.0,0.6023999999999887
194,2,0.2,6.25,1.0,1,1.0,1.5188999999999169
195,2,0.2,6.25,1.0,1,1.0,0.2536000000000058
196,2,0.2,12.5,1.0,1,1.0,0.6432999999999538
197,2,0.2,100.0,1.0,1,1.0,0.3949999999998681
198,2,0.2,25.0,1.0,1,1.0,0.772899999999936
199,2,0.2,12.5,-1.0,-1,1.0,0.2941999999999325
200,2,0.2,25.0,1.0,1,1.0,0.20289999999988595
201,2,0.2,6.25,1.0,1,1.0,1.2305000000000064
202,2,0.2,25.0,1.0,1,1.0,0.38399999999990087
203,2,0.2,25.0,1.0,1,1.0,0.14859999999998763
204,2,0.2,12.5,-1.0,1,0.0,1.8030999999999722
205,2,0.2,6.25,1.0,1,1.0,2.659400000000005
206,2,0.2,12.5,1.0,1,1.0,0.2825999999998885
207,2,0.2,6.25,1.0,1,1.0,0.6539999999998827
208,2,0.2,25.0,-1.0,-1,1.0,0.4371999999999616
209,2,0.8,100.0,-1.0,-1,1.0,0.5095000000000027
210,2,0.8,12.5,-1.0,-1,1.0,0.6005999999999858
211,2,0.8,0.0,-1.0,-1,1.0,0.8958999999999833
212,2,0.8,6.25,-1.0,1,0.0,0.16239999999993415
213,2,0.8,12.5,-1.0,-1,1.0,0.40859999999997854
214,2,0.8,12.5,1.0,1,1.0,1.4651000000000067
215,2,0.8,6.25,-1.0,1,0.0,3.0307999999999993
216,2,0.8,6.25,-1.0,-1,1.0,0.45269999999993615
217,2,0.8,25.0,-1.0,-1,1.0,1.6832999999999174
218,2,0.8,25.0,-1.0,-1,1.0,0.31970000000001164
219,2,0.8,100.0,1.0,1,1.0,0.5343999999998914
220,2,0.8,6.25,-1.0,-1,1.0,0.3306999999999789
221,2,0.8,25.0,-1.0,1,0.0,1.5604999999999336
222,2,0.8,100.0,-1.0,-1,1.0,0.258199999999988
223,2,0.8,6.25,1.0,1,1.0,0.7281999999999016
224,2,0.8,100.0,-1.0,-1,1.0,0.22860000000002856
225,2,0.8,0.0,-1.0,-1,1.0,3.0879999999999654
226,2,0.8,12.5,-1.0,-1,1.0,0.26099999999996726
227,2,0.8,12.5,-1.0,-1,1.0,0.2941999999999325
228,2,0.8,6.25,-1.0,1,0.0,1.9136999999999489
229,2,0.8,25.0,-1.0,-1,1.0,5.2169999999999845
230,2,0.8,25.0,-1.0,-1,1.0,0.24589999999989232
231,2,0.8,25.0,-1.0,-1,1.0,0.34930000000008476
232,2,0.8,25.0,-1.0,-1,1.0,0.37849999999991724
233,2,0.8,0.0,-1.0,-1,1.0,0.35179999999991196
234,2,0.8,12.5,-1.0,-1,1.0,0.6029999999999518
235,2,0.8,6.25,1.0,1,1.0,2.0668000000000575
236,2,0.8,6.25,-1.0,-1,1.0,0.2878000000000611
237,2,0.8,0.0,1.0,-1,0.0,0.6281000000000176
238,2,0.8,25.0,-1.0,1,0.0,3.0747999999998683
239,2,0.8,6.25,1.0,1,1.0,1.3386999999999034
240,2,0.8,100.0,1.0,1,1.0,0.9221999999998616
241,2,0.8,25.0,-1.0,-1,1.0,0.370900000000006
242,2,0.8,25.0,-1.0,-1,1.0,2.646799999999871
243,2,0.8,12.5,-1.0,1,0.0,1.4208999999999605
244,2,0.8,6.25,1.0,1,1.0,6.586799999999926
245,2,0.8,25.0,-1.0,1,0.0,5.775899999999979
246,2,0.8,6.25,-1.0,1,0.0,2.2229999999999563
247,2,0.8,25.0,-1.0,1,0.0,7.382200000000012
248,2,0.8,25.0,-1.0,-1,1.0,1.1608999999999696
249,2,0.8,25.0,1.0,1,1.0,0.5814999999998918
250,2,0.8,6.25,-1.0,-1,1.0,1.4728999999998678
251,2,0.8,6.25,-1.0,-1,1.0,1.6251999999999498
252,2,0.8,25.0,1.0,1,1.0,0.32789999999999964
253,2,0.8,25.0,-1.0,-1,1.0,0.1897999999998774
254,2,0.8,12.5,-1.0,-1,1.0,0.244199999999978
255,2,0.8,100.0,-1.0,-1,1.0,0.3704999999999927
256,2,0.8,0.0,-1.0,1,0.0,0.9259999999999309
257,2,0.8,25.0,1.0,1,1.0,5.237700000000018
258,2,0.8,6.25,-1.0,-1,1.0,0.5802999999998519
259,2,0.8,12.5,-1.0,-1,1.0,0.4457999999998492
260,2,0.8,100.0,-1.0,-1,1.0,0.28109999999992397
261,2,0.8,6.25,1.0,1,1.0,3.516399999999976
262,2,0.8,100.0,-1.0,-1,1.0,0.34569999999985157
263,2,0.8,6.25,-1.0,-1,1.0,0.6019999999999754
264,2,0.8,12.5,-1.0,-1,1.0,0.6811999999999898
265,2,0.8,0.0,-1.0,1,0.0,0.30419999999980973
266,2,0.8,100.0,-1.0,-1,1.0,0.4514999999998963
267,2,0.8,6.25,1.0,1,1.0,1.0833999999999833
268,2,0.8,0.0,1.0,-1,0.0,0.7376999999999043
269,2,0.8,6.25,-1.0,-1,1.0,0.5987999999998692
270,2,0.8,25.0,-1.0,-1,1.0,0.36589999999989686
271,2,0.8,25.0,-1.0,-1,1.0,0.37620000000003984
272,2,0.8,25.0,-1.0,-1,1.0,0.38999999999998636
273,2,0.8,100.0,-1.0,-1,1.0,5.204799999999864
274,2,0.8,12.5,-1.0,-1,1.0,0.5711999999999762
275,2,0.8,6.25,-1.0,-1,1.0,0.3550000000000182
276,2,0.8,25.0,-1.0,-1,1.0,0.38009999999985666
277,2,0.8,100.0,1.0,1,1.0,0.2766999999998916
278,2,0.8,25.0,-1.0,-1,1.0,0.5787000000000262
279,2,0.8,100.0,-1.0,-1,1.0,0.31129999999996016
280,2,0.8,0.0,-1.0,-1,1.0,0.9006999999999152
281,2,0.8,25.0,-1.0,-1,1.0,7.7217999999999165
282,2,0.8,0.0,-1.0,-1,1.0,3.1523000000001957
283,2,0.8,6.25,-1.0,-1,1.0,0.32519999999999527
284,2,0.8,100.0,-1.0,-1,1.0,0.8399999999999181
285,2,0.8,0.0,1.0,1,1.0,0.35599999999999454
286,2,0.8,12.5,1.0,1,1.0,0.6054000000001452
287,2,0.8,100.0,-1.0,-1,1.0,0.2614000000000942
288,2,0.8,12.5,-1.0,1,0.0,0.9940000000001419
289,2,0.8,12.5,-1.0,1,0.0,5.386200000000144
290,2,0.8,100.0,1.0,1,1.0,0.48319999999989705
291,2,0.8,6.25,-1.0,-1,1.0,4.175700000000006
292,2,0.8,12.5,-1.0,-1,1.0,0.5438999999998941
293,2,0.8,100.0,-1.0,-1,1.0,0.5868000000000393
294,2,0.8,25.0,1.0,1,1.0,0.302599999999984
295,2,0.8,12.5,-1.0,-1,1.0,0.5154999999999745
296,2,0.8,100.0,-1.0,-1,1.0,0.45460000000002765
297,2,0.8,12.5,-1.0,-1,1.0,2.0441000000000713
298,2,0.8,0.0,-1.0,-1,1.0,-0.030599999999822103
299,2,0.8,100.0,-1.0,-1,1.0,0.4398000000001048
300,2,0.2,6.25,-1.0,1,0.0,0.6423999999999523
301,2,0.2,25.0,1.0,1,1.0,5.3677000000000135
302,2,0.2,25.0,1.0,1,1.0,0.6186000000000149
303,2,0.2,12.5,1.0,1,1.0,0.5445999999999458
304,2,0.2,6.25,-1.0,1,0.0,0.4238000000000284
305,2,0.2,100.0,1.0,1,1.0,0.37960000000020955
306,2,0.2,25.0,1.0,1,1.0,0.4822999999998956
307,2,0.2,25.0,1.0,1,1.0,1.4750000000001364
308,2,0.2,6.25,-1.0,1,0.0,0.3507000000001881
309,2,0.2,25.0,1.0,1,1.0,3.1530000000002474
310,2,0.2,25.0,1.0,1,1.0,0.35429999999996653
311,2,0.2,12.5,1.0,1,1.0,0.6802999999999884
312,2,0.2,25.0,1.0,1,1.0,0.41630000000009204
313,2,0.2,100.0,1.0,1,1.0,0.34560000000010405
314,2,0.2,25.0,1.0,1,1.0,0.7716000000000349
315,2,0.2,12.5,1.0,1,1.0,6.50420000000031
316,2,0.2,12.5,1.0,1,1.0,5.287499999999909
317,2,0.2,12.5,1.0,1,1.0,0.7987000000000535
318,2,0.2,12.5,1.0,1,1.0,0.5146000000002005
319,2,0.2,12.5,1.0,1,1.0,4.807199999999966
320,2,0.2,12.5,1.0,1,1.0,0.8273000000001502
321,2,0.2,100.0,-1.0,1,0.0,7.916400000000067
322,2,0.2,100.0,1.0,1,1.0,7.3383000000001175
323,2,0.2,25.0,-1.0,1,0.0,18.538299999999936
324,2,0.2,6.25,1.0,1,1.0,3.671700000000328
325,2,0.2,12.5,1.0,1,1.0,1.6632999999999356
326,2,0.2,0.0,1.0,1,1.0,0.9923000000001139
327,2,0.2,25.0,1.0,1,1.0,1.1847999999999956
328,2,0.2,6.25,1.0,1,1.0,0.33380000000011023
329,2,0.2,25.0,1.0,1,1.0,0.5332000000000789
330,2,0.2,25.0,1.0,1,1.0,1.3256999999998698
331,2,0.2,12.5,1.0,1,1.0,0.8214000000000397
332,2,0.2,6.25,-1.0,1,0.0,4.0072999999999865
333,2,0.2,12.5,1.0,1,1.0,0.5018999999999778
334,2,0.2,25.0,1.0,1,1.0,0.7779000000000451
335,2,0.2,12.5,1.0,1,1.0,0.33720000000016626
336,2,0.2,12.5,1.0,1,1.0,0.5729999999998654
337,2,0.2,100.0,1.0,1,1.0,0.5324000000000524
338,2,0.2,6.25,-1.0,1,0.0,9.078200000000152
339,2,0.2,12.5,1.0,1,1.0,7.887300000000323
340,2,0.2,6.25,-1.0,1,0.0,16.196500000000242
341,2,0.2,100.0,1.0,1,1.0,19.517299999999977
342,2,0.8,25.0,1.0,1,1.0,2.424199999999928
343,2,0.8,12.5,-1.0,-1,1.0,1.1293000000000575
344,2,0.8,100.0,-1.0,-1,1.0,0.7748000000001412
345,2,0.8,0.0,-1.0,1,0.0,5.203999999999951
346,2,0.8,100.0,-1.0,-1,1.0,14.251299999999901
347,2,0.8,12.5,-1.0,1,0.0,0.6662999999998647
348,2,0.8,12.5,-1.0,-1,1.0,0.4352000000001226
349,2,0.8,0.0,-1.0,-1,1.0,13.62110000000007
350,2,0.8,12.5,-1.0,-1,1.0,0.983199999999897
351,2,0.8,6.25,-1.0,-1,1.0,0.6756000000002587
352,2,0.8,100.0,-1.0,-1,1.0,0.5212999999998829
353,2,0.8,0.0,-1.0,1,0.0,37.309400000000096
355,2,0.8,25.0,-1.0,1,0.0,21.293800000000374
357,2,0.8,25.0,1.0,1,1.0,0.290000000000191
358,2,0.8,12.5,-1.0,1,0.0,20.498399999999947
360,2,0.8,25.0,-1.0,1,0.0,31.007900999999947
361,2,0.8,6.25,-1.0,1,0.0,54.98040100000003
362,2,0.8,6.25,1.0,1,1.0,7.2954010000000835
363,2,0.8,0.0,1.0,1,1.0,4.355901000000131
364,2,0.8,6.25,-1.0,1,0.0,0.48060099999997874
365,2,0.8,12.5,-1.0,1,0.0,8.282801000000063
366,2,0.8,6.25,-1.0,1,0.0,3.719401000000289
367,2,0.8,6.25,-1.0,1,0.0,18.687401000000136
368,2,0.8,25.0,-1.0,-1,1.0,59.607501000000184
370,2,0.8,12.5,-1.0,1,0.0,10.470101000000113
371,2,0.8,12.5,-1.0,1,0.0,6.503900999999814
372,2,0.2,12.5,-1.0,1,0.0,0.7410010000000966
374,2,0.2,12.5,1.0,1,1.0,3.21670099999983
375,2,0.2,25.0,1.0,1,1.0,2.8652009999996153
376,2,0.2,0.0,-1.0,1,0.0,0.8204009999999471
377,2,0.2,6.25,1.0,1,1.0,0.5594009999999798
378,2,0.2,100.0,1.0,1,1.0,0.37530100000003586
379,2,0.2,12.5,1.0,1,1.0,0.794601000000057
380,2,0.2,12.5,1.0,1,1.0,1.473801000000094
381,2,0.2,100.0,1.0,1,1.0,0.5195009999997637
382,2,0.2,100.0,1.0,1,1.0,0.57220099999995
383,2,0.2,25.0,1.0,1,1.0,0.5949009999999362
384,2,0.2,12.5,1.0,1,1.0,0.4441009999995913
385,2,0.2,25.0,1.0,1,1.0,0.970100999999886
386,2,0.2,12.5,1.0,1,1.0,0.5126009999994494
387,2,0.2,6.25,1.0,1,1.0,3.1087009999996553
388,2,0.2,0.0,1.0,1,1.0,2.873801000000185
389,2,0.2,100.0,1.0,1,1.0,1.4158009999996466
390,2,0.2,12.5,1.0,1,1.0,1.5015009999997346
391,2,0.2,100.0,1.0,1,1.0,0.5772010000000591
392,2,0.2,6.25,1.0,1,1.0,1.50320099999999
393,2,0.2,6.25,1.0,1,1.0,2.898801000000276
394,2,0.2,25.0,1.0,1,1.0,0.48070099999995364
395,2,0.2,25.0,1.0,1,1.0,0.4334009999997761
396,2,0.2,12.5,1.0,1,1.0,4.569500999999946
397,2,0.2,25.0,1.0,1,1.0,6.209500999999818
398,2,0.2,6.25,1.0,1,1.0,0.05370099999981903
399,2,0.2,0.0,1.0,1,1.0,0.18650099999968006
400,2,0.2,12.5,1.0,1,1.0,4.109001000000262
401,2,0.2,12.5,1.0,1,1.0,0.42030099999965387
402,2,0.2,25.0,-1.0,1,0.0,1.1930010000000948
403,2,0.2,25.0,1.0,1,1.0,0.6616010000002461
404,2,0.2,6.25,1.0,1,1.0,0.7142009999997754
405,2,0.2,6.25,1.0,1,1.0,2.9735009999994872
406,2,0.2,25.0,1.0,1,1.0,0.2720009999998183
407,2,0.2,25.0,1.0,1,1.0,2.481300999999803
408,2,0.2,25.0,1.0,1,1.0,20.200100999999904
409,2,0.2,6.25,1.0,1,1.0,0.866200999999819
410,2,0.2,100.0,-1.0,-1,1.0,0.8153010000000904
411,2,0.2,12.5,1.0,1,1.0,42.713100999999824
412,2,0.2,0.0,1.0,1,1.0,3.602600999999595
413,2,0.2,25.0,1.0,1,1.0,2.7166010000000824
414,2,0.2,12.5,-1.0,1,0.0,10.270600999999715
417,2,0.2,100.0,1.0,1,1.0,1.850800999999592
418,2,0.2,25.0,1.0,1,1.0,3.2864009999998416
419,2,0.2,6.25,1.0,1,1.0,2.446900999999798
420,2,0.2,6.25,-1.0,-1,1.0,1.4590000000002874
421,2,0.2,0.0,1.0,1,1.0,3.9914010000002236
422,2,0.2,12.5,1.0,1,1.0,0.4596010000000206
423,2,0.2,12.5,1.0,1,1.0,0.6656010000001515
424,2,0.2,25.0,1.0,1,1.0,0.6615009999995891
425,2,0.2,100.0,1.0,1,1.0,0.44990099999995437
426,2,0.2,12.5,1.0,1,1.0,1.812601000000086
427,2,0.2,12.5,1.0,1,1.0,6.584601000000021
428,2,0.2,0.0,1.0,1,1.0,14.122100999999475
430,2,0.2,100.0,-1.0,1,0.0,41.14420099999961
431,2,0.2,100.0,1.0,1,1.0,13.08040099999971
432,2,0.2,100.0,1.0,1,1.0,0.8125009999998838
433,2,0.2,25.0,1.0,1,1.0,0.41840099999990343
434,2,0.2,12.5,1.0,1,1.0,50.363500999999815
435,2,0.2,0.0,1.0,1,1.0,6.099501000000146
436,2,0.2,6.25,-1.0,1,0.0,1.9304009999996197
437,2,0.2,100.0,1.0,1,1.0,7.278201000000081
438,2,0.2,6.25,1.0,1,1.0,7.757901000000402
439,2,0.2,6.25,1.0,1,1.0,9.665000999999847
440,2,0.2,0.0,-1.0,1,0.0,46.634501
1,3,0.2,12.5,1.0,1,1.0,0.6755
2,3,0.2,25.0,1.0,1,1.0,0.9286999999999983
3,3,0.2,25.0,-1.0,-1,1.0,0.25289999999999857
4,3,0.2,0.0,1.0,1,1.0,0.613999999999999
5,3,0.2,100.0,1.0,1,1.0,0.3257999999999992
6,3,0.2,25.0,1.0,1,1.0,0.4289000000000023
7,3,0.2,0.0,1.0,-1,0.0,0.07939999999999969
8,3,0.2,0.0,1.0,-1,0.0,0.12600000000000122
9,3,0.2,25.0,1.0,1,1.0,0.29609999999999914
10,3,0.2,100.0,-1.0,-1,1.0,0.3343000000000025
11,3,0.2,25.0,1.0,1,1.0,0.30870000000000175
12,3,0.2,6.25,1.0,1,1.0,0.4234000000000009
13,3,0.2,6.25,1.0,1,1.0,1.1789000000000058
14,3,0.2,12.5,1.0,1,1.0,0.3695999999999984
15,3,0.2,6.25,1.0,1,1.0,0.44530000000000314
16,3,0.2,25.0,1.0,1,1.0,0.4153999999999982
17,3,0.2,6.25,1.0,1,1.0,0.899000000000008
18,3,0.2,100.0,1.0,1,1.0,0.252200000000002
19,3,0.2,6.25,-1.0,-1,1.0,3.6252000000000066
20,3,0.2,100.0,1.0,1,1.0,0.30460000000000065
21,3,0.2,25.0,1.0,1,1.0,0.3500000000000014
22,3,0.2,25.0,1.0,1,1.0,0.5811999999999955
23,3,0.2,25.0,1.0,1,1.0,0.9513999999999925
24,3,0.2,25.0,1.0,1,1.0,0.3674000000000035
25,3,0.2,0.0,1.0,1,1.0,1.2784000000000049
26,3,0.2,25.0,1.0,1,1.0,0.4802999999999997
27,3,0.2,6.25,1.0,1,1.0,0.8308000000000106
28,3,0.2,25.0,1.0,1,1.0,0.37079999999998847
29,3,0.2,100.0,1.0,1,1.0,0.2850000000000108
30,3,0.2,12.5,1.0,-1,0.0,0.17860000000000298
31,3,0.2,100.0,1.0,1,1.0,0.4154000000000053
32,3,0.2,25.0,1.0,1,1.0,0.958200000000005
33,3,0.2,25.0,-1.0,-1,1.0,0.9914999999999878
34,3,0.2,12.5,1.0,1,1.0,0.5561000000000007
35,3,0.2,6.25,-1.0,-1,1.0,1.7717000000000098
36,3,0.2,100.0,1.0,1,1.0,0.4549999999999983
37,3,0.2,6.25,-1.0,-1,1.0,9.96820000000001
38,3,0.2,100.0,1.0,1,1.0,0.2582000000000022
39,3,0.2,100.0,-1.0,-1,1.0,0.38989999999999725
40,3,0.2,6.25,1.0,1,1.0,2.1551999999999936
41,3,0.2,25.0,1.0,1,1.0,0.34559999999999036
42,3,0.2,12.5,1.0,1,1.0,0.4709999999999752
43,3,0.2,6.25,1.0,1,1.0,2.9697999999999922
44,3,0.2,0.0,1.0,1,1.0,1.290899999999965
45,3,0.2,12.5,1.0,1,1.0,0.2604999999999791
46,3,0.2,0.0,1.0,1,1.0,0.9951000000000079
47,3,0.2,12.5,1.0,1,1.0,0.43889999999998963
48,3,0.2,100.0,1.0,1,1.0,0.28360000000000696
49,3,0.2,100.0,1.0,1,1.0,0.2598999999999876
50,3,0.2,12.5,1.0,1,1.0,0.31340000000000146
51,3,0.2,12.5,1.0,1,1.0,0.4697999999999922
52,3,0.2,25.0,1.0,1,1.0,0.3313999999999737
53,3,0.2,100.0,1.0,1,1.0,0.3810999999999751
54,3,0.2,0.0,1.0,1,1.0,3.0601000000000056
55,3,0.2,25.0,1.0,1,1.0,0.3248999999999569
56,3,0.2,100.0,1.0,1,1.0,0.4771999999999821
57,3,0.2,6.25,1.0,1,1.0,2.65919999999997
58,3,0.2,100.0,1.0,1,1.0,0.2983000000000118
59,3,0.8,6.25,-1.0,-1,1.0,0.3300999999999874
60,3,0.8,6.25,-1.0,-1,1.0,0.3661999999999921
61,3,0.8,0.0,-1.0,1,0.0,1.5206000000000017
62,3,0.8,25.0,-1.0,-1,1.0,0.4065999999999974
63,3,0.8,6.25,1.0,-1,0.0,0.2978999999999985
64,3,0.8,100.0,1.0,1,1.0,0.18669999999997344
65,3,0.8,25.0,-1.0,-1,1.0,0.4182999999999879
66,3,0.8,12.5,-1.0,-1,1.0,0.42429999999998813
67,3,0.8,25.0,-1.0,-1,1.0,0.8848999999999876
68,3,0.8,100.0,1.0,1,1.0,0.3130000000000166
69,3,0.8,0.0,-1.0,1,0.0,2.140599999999978
70,3,0.8,12.5,-1.0,-1,1.0,0.3427000000000078
71,3,0.8,6.25,-1.0,1,0.0,6.473799999999983
72,3,0.8,12.5,-1.0,-1,1.0,0.34739999999999327
73,3,0.8,12.5,1.0,1,1.0,0.5927999999999827
74,3,0.8,12.5,-1.0,-1,1.0,0.2873999999999626
75,3,0.8,100.0,-1.0,-1,1.0,0.25
76,3,0.8,25.0,-1.0,-1,1.0,0.2845999999999833
77,3,0.8,100.0,1.0,1,1.0,0.2862999999999829
78,3,0.8,6.25,-1.0,-1,1.0,0.29249999999998977
79,3,0.8,12.5,-1.0,-1,1.0,0.3234999999999957
80,3,0.8,6.25,-1.0,-1,1.0,0.27659999999997353
81,3,0.8,100.0,-1.0,-1,1.0,0.26439999999999486
82,3,0.8,6.25,1.0,1,1.0,0.5906999999999982
83,3,0.8,100.0,-1.0,-1,1.0,0.26900000000000546
84,3,0.8,25.0,-1.0,-1,1.0,0.29309999999998126
85,3,0.8,12.5,-1.0,-1,1.0,0.3581999999999539
86,3,0.8,12.5,1.0,1,1.0,0.371599999999944
87,3,0.8,100.0,-1.0,-1,1.0,0.2928999999999746
88,3,0.8,12.5,1.0,1,1.0,0.6055000000000064
89,3,0.8,100.0,-1.0,-1,1.0,0.23799999999999955
90,3,0.8,0.0,-1.0,1,0.0,2.9297999999999433
91,3,0.8,25.0,-1.0,1,0.0,4.144799999999975
92,3,0.8,0.0,1.0,-1,0.0,1.1048999999999864
93,3,0.8,25.0,-1.0,-1,1.0,0.5523999999999774
94,3,0.8,100.0,-1.0,-1,1.0,3.849899999999991
95,3,0.8,12.5,1.0,1,1.0,0.8320000000000505
96,3,0.8,12.5,-1.0,-1,1.0,0.9510999999999399
97,3,0.8,0.0,-1.0,1,0.0,1.9425000000000523
98,3,0.8,0.0,-1.0,1,0.0,0.5679999999999836
99,3,0.8,6.25,-1.0,-1,1.0,1.5149999999999864
100,3,0.8,100.0,1.0,1,1.0,1.211499999999944
101,3,0.8,6.25,1.0,-1,0.0,2.8548999999999864
102,3,0.8,0.0,-1.0,-1,1.0,2.2171000000000163
103,3,0.8,100.0,-1.0,-1,1.0,0.5142999999999347
104,3,0.8,12.5,-1.0,-1,1.0,0.574299999999937
105,3,0.8,25.0,-1.0,-1,1.0,0.32200000000000273
106,3,0.8,12.5,1.0,1,1.0,0.2250999999999408
107,3,0.8,100.0,-1.0,-1,1.0,0.24859999999995352
108,3,0.8,6.25,-1.0,-1,1.0,1.206700000000012
109,3,0.8,6.25,-1.0,-1,1.0,1.8882999999999583
110,3,0.8,12.5,-1.0,-1,1.0,0.3714999999999691
111,3,0.8,6.25,-1.0,-1,1.0,0.3872000000000071
112,3,0.8,12.5,-1.0,-1,1.0,0.4923000000000002
113,3,0.8,6.25,-1.0,-1,1.0,1.202199999999948
114,3,0.8,25.0,-1.0,-1,1.0,0.28829999999999245
115,3,0.8,25.0,-1.0,-1,1.0,0.2920989999999506
116,3,0.8,12.5,1.0,1,1.0,0.21210000000002083
117,3,0.8,25.0,-1.0,-1,1.0,0.3061000000000149
118,3,0.8,12.5,1.0,1,1.0,0.44969999999995025
119,3,0.8,12.5,-1.0,1,0.0,2.8401000000000067
120,3,0.8,12.5,-1.0,-1,1.0,0.4027999999999565
121,3,0.8,6.25,-1.0,1,0.0,0.8717999999999506
122,3,0.8,100.0,1.0,1,1.0,3.951400000000035
123,3,0.8,0.0,-1.0,1,0.0,3.358099999999979
124,3,0.8,100.0,-1.0,-1,1.0,2.352800000000002
125,3,0.8,100.0,-1.0,-1,1.0,0.3216000000000463
126,3,0.8,25.0,-1.0,1,0.0,2.0885999999999854
127,3,0.8,100.0,1.0,1,1.0,0.2915999999999599
128,3,0.8,25.0,-1.0,-1,1.0,0.26389999999997826
129,3,0.8,0.0,1.0,1,1.0,1.697400000000016
130,3,0.8,25.0,1.0,1,1.0,1.210399999999936
131,3,0.8,25.0,-1.0,-1,1.0,1.495900000000006
132,3,0.2,25.0,1.0,1,1.0,0.29419999999998936
133,3,0.2,12.5,-1.0,1,0.0,2.575999999999965
134,3,0.2,100.0,1.0,1,1.0,3.933099000000027
135,3,0.2,25.0,1.0,1,1.0,2.7368999999999915
136,3,0.2,100.0,-1.0,-1,1.0,3.174199999999985
137,3,0.2,25.0,1.0,1,1.0,0.9418999999999187
138,3,0.2,0.0,1.0,-1,0.0,0.428100000000029
139,3,0.2,12.5,1.0,1,1.0,1.5313999999999623
140,3,0.2,6.25,1.0,1,1.0,6.005100000000027
141,3,0.2,12.5,1.0,1,1.0,1.6800000000000068
142,3,0.2,6.25,-1.0,1,0.0,2.2065999999999804
143,3,0.2,100.0,1.0,1,1.0,3.5686999999999784
144,3,0.2,0.0,-1.0,1,0.0,4.20089999999999
145,3,0.2,12.5,1.0,-1,0.0,1.9727999999999497
146,3,0.2,25.0,1.0,1,1.0,2.658399999999972
147,3,0.2,6.25,1.0,1,1.0,3.0387000000000057
148,3,0.2,0.0,1.0,1,1.0,0.9255999999999744
149,3,0.2,12.5,1.0,1,1.0,0.38349999999996953
150,3,0.2,6.25,1.0,1,1.0,1.5568000000000097
151,3,0.2,12.5,-1.0,1,0.0,3.6802000000000135
152,3,0.2,6.25,1.0,1,1.0,2.5227000000001
153,3,0.2,12.5,1.0,1,1.0,0.3765000000000782
154,3,0.2,6.25,1.0,1,1.0,4.719900000000052
155,3,0.2,12.5,-1.0,1,0.0,1.0511999999999944
156,3,0.2,6.25,1.0,1,1.0,5.48070000000007
157,3,0.2,0.0,1.0,1,1.0,0.8612000000000535
158,3,0.2,0.0,-1.0,1,0.0,0.6879000000000133
159,3,0.2,12.5,1.0,1,1.0,0.6162000000000489
160,3,0.2,6.25,1.0,1,1.0,3.685100000000034
161,3,0.2,25.0,-1.0,-1,1.0,0.3694000000000415
162,3,0.2,6.25,1.0,1,1.0,2.193100000000072
163,3,0.2,25.0,1.0,1,1.0,0.48059999999998126
164,3,0.2,100.0,1.0,1,1.0,0.2757000000000289
165,3,0.2,12.5,1.0,1,1.0,1.571700000000078
166,3,0.2,100.0,1.0,1,1.0,0.5425000000001319
167,3,0.2,25.0,1.0,1,1.0,1.7073000000001457
168,3,0.2,100.0,1.0,1,1.0,0.4398000000001048
169,3,0.2,100.0,1.0,1,1.0,0.29290000000003147
170,3,0.2,6.25,-1.0,1,0.0,5.58299999999997
171,3,0.2,25.0,1.0,1,1.0,4.809799999999996
172,3,0.2,12.5,1.0,1,1.0,3.5732999999999038
173,3,0.2,6.25,1.0,1,1.0,0.6516000000000304
174,3,0.2,6.25,1.0,1,1.0,1.5412000000000035
175,3,0.2,25.0,1.0,1,1.0,5.42999999999995
176,3,0.2,25.0,1.0,1,1.0,0.30299999999999727
177,3,0.2,12.5,1.0,1,1.0,3.3612000000000535
178,3,0.2,0.0,1.0,1,1.0,2.735500000000002
179,3,0.2,100.0,-1.0,1,0.0,2.900500000000079
180,3,0.2,6.25,-1.0,1,0.0,8.141300000000115
181,3,0.2,100.0,1.0,1,1.0,0.3816999999999098
182,3,0.2,12.5,-1.0,1,0.0,6.339599000000135
183,3,0.2,12.5,1.0,1,1.0,2.4440000000000737
184,3,0.2,25.0,1.0,1,1.0,4.104200000000105
185,3,0.2,6.25,1.0,1,1.0,2.2904000000000906
186,3,0.2,12.5,1.0,1,1.0,0.43410000000005766
187,3,0.2,6.25,-1.0,-1,1.0,2.6420000000000528
188,3,0.2,100.0,-1.0,-1,1.0,0.3746000000001004
189,3,0.2,0.0,-1.0,1,0.0,5.249000000000024
190,3,0.2,12.5,-1.0,-1,1.0,0.9092000000000553
191,3,0.2,6.25,1.0,1,1.0,3.24350000000004
192,3,0.2,25.0,1.0,1,1.0,1.1003999999999223
193,3,0.2,12.5,-1.0,-1,1.0,0.6617000000001099
194,3,0.2,12.5,-1.0,1,0.0,1.3367000000000644
195,3,0.2,100.0,1.0,1,1.0,0.13059999999995853
196,3,0.8,25.0,1.0,1,1.0,1.3114000000000487
197,3,0.8,12.5,-1.0,1,0.0,4.187900000000013
198,3,0.8,100.0,-1.0,-1,1.0,0.3827000000001135
199,3,0.8,100.0,-1.0,-1,1.0,0.9213999999999487
200,3,0.8,6.25,-1.0,1,0.0,4.414600000000064
201,3,0.8,25.0,-1.0,1,0.0,5.138900000000035
202,3,0.8,12.5,-1.0,1,0.0,0.7458000000000311
203,3,0.8,6.25,-1.0,-1,1.0,3.932700000000068
204,3,0.8,25.0,-1.0,-1,1.0,0.301900000000046
205,3,0.8,100.0,-1.0,-1,1.0,0.27310000000011314
206,3,0.8,6.25,-1.0,1,0.0,0.2716000000000349
207,3,0.8,0.0,-1.0,1,0.0,2.7875000000000227
208,3,0.8,100.0,-1.0,1,0.0,6.032299999999964
209,3,0.8,12.5,-1.0,1,0.0,7.227900000000091
210,3,0.8,12.5,-1.0,-1,1.0,0.9932000000001153
211,3,0.8,6.25,-1.0,-1,1.0,8.790300000000002
212,3,0.8,6.25,-1.0,-1,1.0,0.8260999999999967
213,3,0.8,6.25,-1.0,-1,1.0,6.365099999999984
214,3,0.8,25.0,1.0,1,1.0,0.2499000000001388
215,3,0.8,25.0,-1.0,-1,1.0,0.4994000000001506
216,3,0.8,12.5,1.0,1,1.0,0.07799999999997453
217,3,0.8,25.0,-1.0,-1,1.0,0.32190000000002783
218,3,0.8,12.5,-1.0,1,0.0,5.4221
219,3,0.8,12.5,-1.0,-1,1.0,0.46680000000003474
220,3,0.8,12.5,-1.0,-1,1.0,1.9521000000000868
221,3,0.8,12.5,-1.0,-1,1.0,0.30949999999995725
222,3,0.8,25.0,1.0,1,1.0,0.30560000000002674
223,3,0.8,100.0,-1.0,-1,1.0,0.6457000000000335
224,3,0.8,6.25,-1.0,-1,1.0,1.3723000000001093
225,3,0.8,25.0,-1.0,-1,1.0,0.6106000000000904
226,3,0.8,6.25,-1.0,-1,1.0,0.5635999999999513
227,3,0.8,12.5,-1.0,-1,1.0,0.8817999999999984
228,3,0.8,25.0,-1.0,-1,1.0,0.43410000000005766
229,3,0.8,0.0,-1.0,-1,1.0,13.150400000000104
230,3,0.8,25.0,-1.0,-1,1.0,0.21820000000002437
231,3,0.8,12.5,-1.0,-1,1.0,6.163700000000063
232,3,0.8,6.25,1.0,1,1.0,6.391500000000065
233,3,0.8,6.25,-1.0,1,0.0,0.7670000000000528
234,3,0.8,12.5,1.0,1,1.0,6.332199999999943
235,3,0.8,12.5,-1.0,1,0.0,8.609800000000064
236,3,0.8,100.0,1.0,1,1.0,1.662300000000073
237,3,0.8,12.5,-1.0,1,0.0,9.139700000000062
238,3,0.8,100.0,-1.0,-1,1.0,1.3770000000000664
239,3,0.8,6.25,-1.0,-1,1.0,0.7419999999999618
240,3,0.8,100.0,1.0,1,1.0,0.2641999999999598
241,3,0.8,0.0,1.0,1,1.0,5.207400000000121
242,3,0.8,12.5,-1.0,-1,1.0,18.635999999999967
243,3,0.8,25.0,-1.0,-1,1.0,29.208600000000047
244,3,0.8,6.25,-1.0,1,0.0,22.665300000000116
245,3,0.8,12.5,-1.0,-1,1.0,4.933799999999792
247,3,0.8,25.0,-1.0,1,0.0,16.22199999999998
248,3,0.8,0.0,-1.0,1,0.0,45.65549999999985
249,3,0.8,6.25,1.0,1,1.0,12.160700000000134
250,3,0.8,25.0,1.0,1,1.0,2.518999999999778
251,3,0.2,100.0,-1.0,1,0.0,1.0705000000000382
252,3,0.2,25.0,1.0,1,1.0,1.4790999999997894
253,3,0.2,6.25,-1.0,1,0.0,52.104699999999866
254,3,0.2,12.5,-1.0,1,0.0,28.70049999999992
255,3,0.2,25.0,1.0,1,1.0,5.180700000000115
256,3,0.2,12.5,1.0,1,1.0,44.55430000000001
257,3,0.2,100.0,-1.0,1,0.0,14.749399999999923
258,3,0.2,100.0,1.0,1,1.0,34.95629999999983
259,3,0.2,12.5,1.0,1,1.0,0.22499999999990905
260,3,0.2,6.25,1.0,1,1.0,2.870400000000018
261,3,0.2,0.0,1.0,1,1.0,8.618999999999915
262,3,0.2,6.25,1.0,1,1.0,0.4257000000000062
263,3,0.2,25.0,1.0,1,1.0,0.34819999999990614
264,3,0.2,6.25,1.0,1,1.0,2.270699999999806
265,3,0.2,100.0,-1.0,-1,1.0,0.5992999999998574
266,3,0.2,6.25,-1.0,-1,1.0,0.8852999999999156
267,3,0.2,12.5,1.0,1,1.0,0.39449999999987995
268,3,0.2,25.0,1.0,1,1.0,0.2904999999998381
269,3,0.2,100.0,1.0,1,1.0,0.3795000000000073
270,3,0.2,25.0,1.0,1,1.0,0.4288000000001375
271,3,0.2,100.0,-1.0,-1,1.0,0.4180999999998676
272,3,0.2,6.25,1.0,1,1.0,0.34039999999981774
273,3,0.2,0.0,1.0,1,1.0,6.488699999999881
274,3,0.2,12.5,-1.0,1,0.0,17.649199999999837
275,3,0.2,100.0,1.0,1,1.0,0.5091999999999643
276,3,0.2,100.0,1.0,1,1.0,0.3753999999998996
277,3,0.2,6.25,1.0,1,1.0,0.7318000000000211
278,3,0.2,0.0,1.0,1,1.0,3.7838999999999032
279,3,0.2,25.0,1.0,1,1.0,0.33550000000013824
280,3,0.2,100.0,1.0,1,1.0,0.5407000000000153
281,3,0.2,0.0,1.0,1,1.0,8.560100000000148
282,3,0.2,100.0,1.0,1,1.0,0.43699999999989814
283,3,0.2,12.5,1.0,1,1.0,1.349999999999909
284,3,0.8,0.0,-1.0,1,0.0,14.342100000000073
285,3,0.8,6.25,-1.0,1,0.0,13.467099999999846
286,3,0.8,12.5,-1.0,1,0.0,10.268499999999904
287,3,0.8,25.0,-1.0,1,0.0,3.121099999999842
288,3,0.8,6.25,-1.0,1,0.0,38.24940000000015
289,3,0.8,25.0,-1.0,1,0.0,37.83979999999997
290,3,0.8,100.0,-1.0,-1,1.0,3.327199999999948
291,3,0.8,25.0,-1.0,1,0.0,8.23869899999977
292,3,0.8,100.0,-1.0,1,0.0,32.984699999999975
293,3,0.8,6.25,-1.0,1,0.0,8.683899999999994
294,3,0.8,6.25,-1.0,1,0.0,31.696899999999914
295,3,0.8,100.0,-1.0,1,0.0,0.919399999999996
296,3,0.8,100.0,-1.0,1,0.0,41.781499999999824
297,3,0.8,6.25,-1.0,1,0.0,16.94399999999996
298,3,0.8,12.5,-1.0,1,0.0,45.385299999999916
299,3,0.8,25.0,1.0,1,1.0,0.3126999999999498
300,3,0.8,12.5,-1.0,1,0.0,3.9348999999999705
301,3,0.8,6.25,-1.0,1,0.0,33.4695999999999
302,3,0.8,25.0,-1.0,-1,1.0,14.21499999999969
303,3,0.8,0.0,1.0,-1,0.0,4.60310000000004
304,3,0.8,100.0,-1.0,1,0.0,12.100299999999834
305,3,0.8,25.0,-1.0,1,0.0,5.405499999999847
306,3,0.8,6.25,1.0,1,1.0,0.5968999999997777
307,3,0.8,25.0,-1.0,-1,1.0,0.6086999999997715
308,3,0.8,25.0,-1.0,1,0.0,5.273899999999912
309,3,0.8,25.0,-1.0,1,0.0,13.007899999999836
310,3,0.8,25.0,-1.0,1,0.0,23.17569999999978
311,3,0.8,12.5,1.0,1,1.0,1.1211000000002969
312,3,0.8,12.5,-1.0,-1,1.0,2.6666000000004715
313,3,0.8,25.0,-1.0,-1,1.0,0.37540000000035434
314,3,0.8,12.5,-1.0,-1,1.0,4.234300000000076
315,3,0.8,12.5,-1.0,-1,1.0,0.4094999999997526
316,3,0.8,25.0,-1.0,-1,1.0,0.2578000000003158
317,3,0.8,100.0,1.0,1,1.0,0.45040000000017244
318,3,0.8,0.0,1.0,1,1.0,0.7994000000003325
319,3,0.8,100.0,-1.0,-1,1.0,0.45109999999976935
320,3,0.8,25.0,1.0,1,1.0,0.4972000000002481
321,3,0.8,100.0,-1.0,-1,1.0,0.5230000000001382
322,3,0.8,0.0,1.0,1,1.0,8.49850000000015
323,3,0.8,25.0,1.0,1,1.0,0.5479000000000269
324,3,0.8,0.0,-1.0,1,0.0,1.2132000000001426
325,3,0.8,0.0,1.0,1,1.0,2.028700000000299
326,3,0.8,12.5,-1.0,-1,1.0,0.3308999999999287
327,3,0.2,6.25,1.0,1,1.0,0.35700000000042564
328,3,0.2,12.5,1.0,1,1.0,0.22620000000006257
329,3,0.2,12.5,1.0,1,1.0,1.1554000000000997
330,3,0.2,6.25,1.0,1,1.0,4.2475000000004
331,3,0.2,100.0,1.0,1,1.0,0.2756000000003951
332,3,0.2,12.5,1.0,1,1.0,2.311999999999898
333,3,0.2,6.25,1.0,-1,0.0,5.1677999999997155
334,3,0.2,12.5,1.0,1,1.0,0.48780000000033397
335,3,0.2,100.0,1.0,1,1.0,3.3033000000004904
336,3,0.2,100.0,-1.0,1,0.0,29.29489999999987
337,3,0.2,100.0,1.0,1,1.0,0.6616010000002461
338,3,0.2,12.5,1.0,1,1.0,0.5136010000001079
339,3,0.2,25.0,-1.0,1,0.0,3.906601000000137
340,3,0.2,12.5,1.0,1,1.0,2.6409010000002127
341,3,0.2,0.0,1.0,1,1.0,15.479401000000053
342,3,0.2,6.25,1.0,1,1.0,3.6359010000001035
343,3,0.2,6.25,-1.0,1,0.0,1.0278010000001814
344,3,0.2,25.0,1.0,1,1.0,1.5529010000000198
345,3,0.2,25.0,1.0,1,1.0,6.168801000000258
346,3,0.2,100.0,1.0,1,1.0,0.39300100000036764
347,3,0.2,100.0,1.0,1,1.0,9.042201000000205
348,3,0.2,0.0,1.0,1,1.0,5.185201000000234
349,3,0.2,100.0,1.0,1,1.0,1.1304010000003473
350,3,0.2,12.5,1.0,1,1.0,11.529501000000437
351,3,0.8,0.0,-1.0,1,0.0,7.851600999999846
352,3,0.8,6.25,1.0,1,1.0,5.135201000000052
353,3,0.8,6.25,-1.0,1,0.0,32.512400999999954
354,3,0.8,25.0,-1.0,1,0.0,3.655101000000286
355,3,0.8,25.0,1.0,1,1.0,6.513101000000006
356,3,0.8,25.0,-1.0,1,0.0,2.4274010000003727
357,3,0.8,25.0,-1.0,1,0.0,7.071701000000303
358,3,0.8,6.25,-1.0,1,0.0,3.051701000000321
359,3,0.8,0.0,-1.0,1,0.0,2.723301000000447
360,3,0.8,0.0,-1.0,1,0.0,14.138201000000208
361,3,0.8,100.0,-1.0,1,0.0,16.716401000000133
362,3,0.8,100.0,-1.0,1,0.0,23.48240100000021
363,3,0.8,100.0,-1.0,1,0.0,10.391501000000062
364,3,0.8,100.0,1.0,1,1.0,4.856501000000208
365,3,0.8,100.0,-1.0,-1,1.0,1.6947010000003502
366,3,0.8,25.0,-1.0,1,0.0,6.837000999999873
367,3,0.8,6.25,-1.0,1,0.0,19.270500999999967
368,3,0.8,100.0,-1.0,-1,1.0,12.173701000000165
369,3,0.8,12.5,-1.0,1,0.0,3.7263010000001486
370,3,0.8,0.0,1.0,1,1.0,15.583701000000474
371,3,0.8,0.0,-1.0,1,0.0,2.0552010000001246
372,3,0.8,100.0,1.0,1,1.0,0.31320099999993545
373,3,0.8,0.0,-1.0,1,0.0,9.560001000000284
374,3,0.8,100.0,-1.0,1,0.0,13.722500999999738
375,3,0.8,12.5,-1.0,1,0.0,25.4779010000002
376,3,0.8,6.25,-1.0,1,0.0,1.7422010000000228
377,3,0.8,0.0,-1.0,1,0.0,29.52770099999998
378,3,0.8,6.25,-1.0,1,0.0,22.457401000000118
379,3,0.8,25.0,-1.0,1,0.0,9.513201000000208
380,3,0.8,6.25,-1.0,1,0.0,15.009600999999748
381,3,0.8,6.25,-1.0,1,0.0,1.2239009999998416
382,3,0.8,0.0,-1.0,1,0.0,3.199101000000155
383,3,0.8,100.0,-1.0,1,0.0,18.134200999999848
384,3,0.8,6.25,-1.0,1,0.0,23.103901000000405
1,4,0.5,12.5,-1.0,-1,1.0,0.9955999999999996
2,4,0.5,12.5,-1.0,-1,1.0,0.4099000000000004
3,4,0.5,6.25,-1.0,-1,1.0,0.5183
4,4,0.5,6.25,-1.0,-1,1.0,0.35109999999999886
5,4,0.5,25.0,1.0,1,1.0,0.2552999999999983
6,4,0.5,25.0,-1.0,-1,1.0,0.42050000000000054
7,4,0.5,100.0,1.0,1,1.0,0.3628
8,4,0.5,25.0,-1.0,-1,1.0,1.4000000000000021
9,4,0.5,0.0,1.0,-1,0.0,0.05790000000000006
10,4,0.5,12.5,1.0,1,1.0,0.1316999999999986
11,4,0.5,12.5,1.0,1,1.0,0.3042999999999978
12,4,0.5,100.0,1.0,1,1.0,0.048900000000003274
13,4,0.5,100.0,-1.0,-1,1.0,0.5523000000000025
14,4,0.5,12.5,1.0,1,1.0,0.44780000000000086
15,4,0.5,6.25,1.0,1,1.0,0.6645000000000039
16,4,0.5,25.0,1.0,1,1.0,0.3663000000000025
17,4,0.5,100.0,1.0,1,1.0,0.28229999999999933
18,4,0.5,6.25,-1.0,1,0.0,0.1997000000000071
19,4,0.5,100.0,-1.0,-1,1.0,0.30060000000000286
20,4,0.5,12.5,-1.0,-1,1.0,0.5068000000000126
21,4,0.5,100.0,-1.0,-1,1.0,0.2693999999999903
22,4,0.5,12.5,-1.0,-1,1.0,0.5006999999999948
23,4,0.5,100.0,-1.0,-1,1.0,0.13929999999999154
24,4,0.5,100.0,-1.0,-1,1.0,0.3036999999999921
25,4,0.5,100.0,1.0,1,1.0,0.24779999999999802
26,4,0.5,25.0,-1.0,-1,1.0,0.19409999999999172
27,4,0.5,25.0,1.0,1,1.0,0.3440999999999832
28,4,0.5,6.25,1.0,-1,0.0,1.0852000000000004
29,4,0.5,25.0,1.0,1,1.0,0.2476999999999947
30,4,0.5,12.5,1.0,1,1.0,1.9039999999999964
31,4,0.5,0.0,1.0,1,1.0,0.16489999999998872
32,4,0.5,12.5,-1.0,-1,1.0,0.3690999999999889
33,4,0.5,6.25,1.0,1,1.0,0.39689999999998804
34,4,0.5,100.0,-1.0,-1,1.0,0.29049999999999443
35,4,0.5,100.0,-1.0,-1,1.0,0.32910000000001105
36,4,0.5,12.5,-1.0,-1,1.0,0.2816999999999865
37,4,0.5,100.0,-1.0,-1,1.0,0.24579999999998847
38,4,0.5,0.0,1.0,1,1.0,0.6761999999999944
39,4,0.5,100.0,-1.0,-1,1.0,0.24540000000000362
40,4,0.5,100.0,1.0,1,1.0,0.26089999999999236
41,4,0.5,12.5,-1.0,-1,1.0,0.32200000000000273
42,4,0.5,25.0,-1.0,-1,1.0,0.5474000000000103
43,4,0.5,25.0,-1.0,-1,1.0,0.41250000000002274
44,4,0.5,12.5,1.0,1,1.0,0.32850000000001955
45,4,0.5,6.25,-1.0,1,0.0,0.7515999999999963
46,4,0.5,6.25,1.0,-1,0.0,2.793500000000023
47,4,0.5,25.0,1.0,-1,0.0,1.0822000000000003
48,4,0.5,6.25,1.0,1,1.0,0.18410000000000082
49,4,0.5,12.5,1.0,1,1.0,0.5882000000000005
50,4,0.5,6.25,1.0,1,1.0,1.1218000000000075
51,4,0.5,25.0,-1.0,-1,1.0,0.4649000000000001
52,4,0.5,100.0,-1.0,-1,1.0,0.4697999999999922
53,4,0.5,100.0,1.0,-1,0.0,0.14619999999999322
54,4,0.5,6.25,1.0,1,1.0,1.281000000000006
55,4,0.5,25.0,-1.0,-1,1.0,1.3010000000000161
56,4,0.5,0.0,-1.0,-1,1.0,0.8895000000000266
57,4,0.5,12.5,1.0,1,1.0,0.6271999999999878
58,4,0.5,100.0,-1.0,-1,1.0,0.6085999999999956
59,4,0.5,25.0,-1.0,-1,1.0,0.3026000000000124
60,4,0.5,12.5,1.0,1,1.0,0.8343000000000131
61,4,0.5,100.0,-1.0,-1,1.0,0.6744000000000199
62,4,0.5,6.25,-1.0,1,0.0,1.1353000000000009
63,4,0.5,12.5,-1.0,1,0.0,0.42300000000003024
64,4,0.5,12.5,1.0,1,1.0,0.080600000000004
65,4,0.5,100.0,1.0,1,1.0,0.37520000000000664
66,4,0.5,0.0,-1.0,1,0.0,1.059500000000014
67,4,0.5,12.5,1.0,1,1.0,1.497300000000024
68,4,0.5,12.5,1.0,1,1.0,0.1312000000000353
69,4,0.5,100.0,-1.0,-1,1.0,0.48279999999999745
70,4,0.5,100.0,1.0,1,1.0,0.5058999999999969
71,4,0.5,100.0,-1.0,-1,1.0,0.4193000000000211
72,4,0.5,12.5,1.0,1,1.0,2.0695000000000334
73,4,0.5,100.0,1.0,1,1.0,0.3172999999999888
74,4,0.5,100.0,1.0,1,1.0,0.591700000000003
75,4,0.5,12.5,-1.0,1,0.0,0.11530000000001905
76,4,0.5,6.25,-1.0,1,0.0,0.039400000000000546
77,4,0.5,6.25,1.0,1,1.0,0.14029999999999632
78,4,0.5,25.0,-1.0,-1,1.0,0.7099000000000331
79,4,0.5,100.0,-1.0,1,0.0,0.23620000000002506
80,4,0.5,100.0,1.0,1,1.0,0.22339999999999804
81,4,0.5,100.0,-1.0,-1,1.0,0.051400000000001
82,4,0.5,100.0,-1.0,-1,1.0,0.2898000000000138
83,4,0.5,100.0,-1.0,1,0.0,0.12620000000001141
84,4,0.5,25.0,-1.0,-1,1.0,0.288599999999974
85,4,0.5,0.0,1.0,-1,0.0,0.63900000000001
86,4,0.5,6.25,1.0,-1,0.0,0.19280000000003383
87,4,0.5,100.0,-1.0,1,0.0,1.1748000000000047
88,4,0.5,25.0,-1.0,-1,1.0,0.25149999999996453
89,4,0.5,100.0,1.0,1,1.0,0.3042000000000371
90,4,0.5,100.0,1.0,1,1.0,0.2656000000000063
91,4,0.2,0.0,1.0,-1,0.0,0.9089000000000169
92,4,0.2,6.25,1.0,1,1.0,0.8549999999999613
93,4,0.2,0.0,1.0,1,1.0,4.3279
94,4,0.2,12.5,1.0,1,1.0,0.7554000000000087
95,4,0.2,100.0,1.0,1,1.0,3.345899999999972
96,4,0.2,6.25,1.0,1,1.0,0.741800000000012
97,4,0.2,100.0,1.0,1,1.0,0.48340000000001737
98,4,0.2,12.5,1.0,1,1.0,3.115099999999984
99,4,0.2,25.0,1.0,1,1.0,4.272400000000005
100,4,0.2,12.5,-1.0,1,0.0,5.59940000000006
101,4,0.2,100.0,-1.0,-1,1.0,0.5561000000000149
102,4,0.2,0.0,1.0,-1,0.0,0.24029999999999063
103,4,0.2,12.5,1.0,1,1.0,0.8170999999999822
104,4,0.2,25.0,1.0,1,1.0,3.2837000000000103
105,4,0.2,6.25,1.0,1,1.0,0.47889999999995325
106,4,0.2,100.0,1.0,1,1.0,0.4211999999999989
107,4,0.2,6.25,1.0,1,1.0,1.9823999999999842
108,4,0.2,25.0,1.0,1,1.0,2.8362999999999943
109,4,0.2,100.0,1.0,1,1.0,0.5758000000000152
110,4,0.2,6.25,1.0,1,1.0,2.8607000000000085
111,4,0.2,12.5,1.0,1,1.0,0.47680000000002565
112,4,0.2,100.0,1.0,1,1.0,0.5298999999999978
113,4,0.2,12.5,1.0,1,1.0,1.919900000000041
114,4,0.2,100.0,1.0,1,1.0,0.264500000000055
115,4,0.2,25.0,-1.0,1,0.0,1.0802000000000476
116,4,0.2,25.0,1.0,1,1.0,0.1905999999999608
117,4,0.2,25.0,1.0,1,1.0,0.3281000000000631
118,4,0.2,25.0,1.0,1,1.0,2.030900000000031
119,4,0.2,12.5,1.0,1,1.0,1.7746989999999414
120,4,0.2,6.25,1.0,1,1.0,1.518100000000004
121,4,0.2,6.25,1.0,1,1.0,1.512800000000027
122,4,0.2,12.5,1.0,1,1.0,0.7741000000000327
123,4,0.2,100.0,1.0,1,1.0,0.7222000000000435
124,4,0.2,6.25,1.0,1,1.0,3.3611999999999966
125,4,0.2,6.25,1.0,1,1.0,4.765699999999981
126,4,0.2,12.5,1.0,1,1.0,2.945199999999943
127,4,0.2,25.0,1.0,1,1.0,3.8735999999999535
128,4,0.2,100.0,1.0,1,1.0,4.164500000000032
129,4,0.2,12.5,-1.0,1,0.0,6.296600000000012
130,4,0.2,25.0,-1.0,-1,1.0,0.1856999999999971
131,4,0.2,0.0,1.0,-1,0.0,4.62560000000002
132,4,0.2,25.0,-1.0,1,0.0,0.27520000000004075
133,4,0.2,12.5,1.0,1,1.0,0.5392000000000507
134,4,0.2,6.25,1.0,1,1.0,0.365600000000029
135,4,0.2,12.5,-1.0,1,0.0,2.3324000000000638
136,4,0.2,6.25,1.0,1,1.0,0.6259000000000015
137,4,0.2,12.5,-1.0,1,0.0,2.532700000000034
138,4,0.2,6.25,1.0,1,1.0,0.41210000000000946
139,4,0.2,25.0,1.0,-1,0.0,0.7287000000000035
140,4,0.2,12.5,1.0,1,1.0,1.5090000000000146
141,4,0.2,25.0,1.0,1,1.0,3.2882999999999925
142,4,0.2,25.0,1.0,1,1.0,2.7685000000000173
143,4,0.2,6.25,1.0,1,1.0,2.482400000000041
144,4,0.2,6.25,1.0,1,1.0,2.1528000000000134
145,4,0.2,100.0,1.0,1,1.0,0.5076999999999998
146,4,0.2,6.25,1.0,1,1.0,0.6979999999999791
147,4,0.2,100.0,1.0,1,1.0,0.6530999999999949
148,4,0.2,12.5,1.0,1,1.0,0.29750000000001364
149,4,0.2,12.5,1.0,1,1.0,0.39650000000006
150,4,0.2,25.0,1.0,1,1.0,0.6739999999999213
151,4,0.2,0.0,-1.0,1,0.0,2.0416000000000167
152,4,0.2,0.0,1.0,1,1.0,0.5790000000000646
153,4,0.2,25.0,1.0,1,1.0,0.8678999999998496
154,4,0.2,25.0,1.0,1,1.0,2.77800000000002
155,4,0.2,25.0,1.0,1,1.0,3.994100000000003
156,4,0.2,12.5,1.0,1,1.0,5.300799999999981
157,4,0.2,6.25,-1.0,-1,1.0,1.209799999999973
158,4,0.2,0.0,1.0,1,1.0,3.066500000000019
159,4,0.2,6.25,1.0,1,1.0,0.2826999999999771
160,4,0.2,6.25,1.0,1,1.0,1.6067000000000462
161,4,0.2,100.0,1.0,1,1.0,2.0036999999999807
162,4,0.2,25.0,1.0,1,1.0,0.691599999999994
163,4,0.2,25.0,1.0,1,1.0,0.5408999999999651
164,4,0.2,0.0,1.0,1,1.0,1.2129999999999654
165,4,0.2,25.0,1.0,1,1.0,0.8120000000000118
166,4,0.2,25.0,1.0,1,1.0,2.4320999999999913
167,4,0.2,12.5,1.0,1,1.0,2.08829999999989
168,4,0.2,6.25,-1.0,1,0.0,1.783900000000017
169,4,0.2,6.25,-1.0,-1,1.0,0.5683000000001357
170,4,0.2,12.5,-1.0,-1,1.0,0.35180000000002565
171,4,0.2,12.5,1.0,1,1.0,2.243600000000015
172,4,0.2,6.25,1.0,1,1.0,0.8474999999999682
173,4,0.8,6.25,-1.0,-1,1.0,0.6451000000000704
174,4,0.8,100.0,1.0,1,1.0,0.5293000000000347
175,4,0.8,0.0,-1.0,1,0.0,6.601599999999962
176,4,0.8,12.5,1.0,1,1.0,0.6941000000000486
177,4,0.8,100.0,-1.0,-1,1.0,0.6417000000000144
178,4,0.8,25.0,-1.0,-1,1.0,0.7969000000000506
179,4,0.8,100.0,-1.0,-1,1.0,0.7653000000000247
180,4,0.8,25.0,-1.0,-1,1.0,0.7534999999999172
181,4,0.8,100.0,-1.0,-1,1.0,1.432399999999916
182,4,0.8,6.25,-1.0,-1,1.0,0.7215999999999667
183,4,0.8,12.5,-1.0,-1,1.0,0.6604999999999563
184,4,0.8,12.5,-1.0,-1,1.0,0.7426000000000386
185,4,0.8,0.0,-1.0,-1,1.0,0.6580000000000155
186,4,0.8,25.0,-1.0,-1,1.0,0.33330000000012205
187,4,0.8,100.0,1.0,1,1.0,0.8484999999999445
188,4,0.8,6.25,1.0,-1,0.0,0.7609999999999673
189,4,0.8,25.0,-1.0,1,0.0,2.953700000000026
190,4,0.8,12.5,-1.0,-1,1.0,4.848299999999995
191,4,0.8,25.0,-1.0,-1,1.0,0.46850000000006276
192,4,0.8,6.25,-1.0,-1,1.0,0.9318999999999278
193,4,0.8,6.25,1.0,-1,0.0,1.8342999999999847
194,4,0.8,12.5,-1.0,1,0.0,13.064300000000117
195,4,0.8,100.0,-1.0,-1,1.0,1.1404999999999745
196,4,0.8,25.0,-1.0,-1,1.0,0.5225000000000364
197,4,0.8,25.0,-1.0,-1,1.0,0.9641000000000304
198,4,0.8,12.5,-1.0,-1,1.0,4.954400000000078
199,4,0.8,25.0,-1.0,-1,1.0,3.402599999999893
200,4,0.8,100.0,-1.0,-1,1.0,0.3689999999999145
201,4,0.8,100.0,1.0,1,1.0,0.38639899999998306
202,4,0.8,6.25,-1.0,-1,1.0,0.5202000000000453
203,4,0.8,100.0,-1.0,-1,1.0,0.370900000000006
204,4,0.8,6.25,1.0,1,1.0,0.13009999999997035
205,4,0.8,6.25,-1.0,-1,1.0,1.174799999999891
206,4,0.8,12.5,-1.0,-1,1.0,1.3585999999999103
207,4,0.8,12.5,1.0,1,1.0,0.1830009999999902
208,4,0.8,25.0,-1.0,-1,1.0,0.30170099999998
209,4,0.8,6.25,-1.0,-1,1.0,2.13040100000012
210,4,0.8,100.0,-1.0,-1,1.0,0.3114010000000462
211,4,0.8,12.5,-1.0,-1,1.0,1.1728010000000495
212,4,0.8,6.25,1.0,1,1.0,2.0039010000000417
213,4,0.8,100.0,1.0,1,1.0,0.3060010000000375
214,4,0.8,25.0,-1.0,-1,1.0,1.8781009999999014
215,4,0.8,25.0,-1.0,1,0.0,5.067301000000043
216,4,0.8,100.0,1.0,1,1.0,4.304300999999896
217,4,0.8,12.5,-1.0,1,0.0,4.615801000000033
218,4,0.8,0.0,-1.0,1,0.0,11.230601000000092
219,4,0.8,100.0,-1.0,-1,1.0,0.5586009999999533
220,4,0.8,6.25,-1.0,-1,1.0,7.568700999999919
221,4,0.8,6.25,-1.0,-1,1.0,1.2975010000000111
222,4,0.8,25.0,-1.0,-1,1.0,1.9609010000000353
223,4,0.8,100.0,-1.0,-1,1.0,0.6161009999999578
224,4,0.8,12.5,1.0,1,1.0,0.5284009999999171
225,4,0.8,100.0,-1.0,-1,1.0,2.9667009999999436
226,4,0.8,12.5,-1.0,-1,1.0,1.303401000000008
227,4,0.8,0.0,-1.0,1,0.0,5.772201000000109
228,4,0.8,25.0,-1.0,-1,1.0,3.6972010000000637
229,4,0.8,25.0,-1.0,1,0.0,1.2501009999999724
230,4,0.8,12.5,-1.0,-1,1.0,3.4819009999999935
231,4,0.8,25.0,-1.0,-1,1.0,8.049601000000052
232,4,0.8,12.5,-1.0,-1,1.0,0.49630099999990307
233,4,0.8,25.0,-1.0,-1,1.0,1.5893009999999776
234,4,0.8,100.0,-1.0,-1,1.0,0.24610100000006696
235,4,0.8,12.5,-1.0,-1,1.0,0.6594010000000026
236,4,0.8,100.0,-1.0,-1,1.0,0.26220100000000457
237,4,0.8,12.5,-1.0,-1,1.0,5.047301000000061
238,4,0.8,6.25,-1.0,1,0.0,0.5704009999999471
239,4,0.8,25.0,1.0,1,1.0,0.44639999999992597
240,4,0.8,12.5,-1.0,-1,1.0,0.47079999999994016
241,4,0.8,6.25,-1.0,-1,1.0,0.7865010000000439
242,4,0.8,12.5,-1.0,-1,1.0,0.5580009999999902
243,4,0.8,0.0,-1.0,-1,1.0,1.236101000000076
244,4,0.8,100.0,1.0,1,1.0,0.33960100000001603
245,4,0.2,0.0,1.0,1,1.0,4.749200999999971
246,4,0.2,100.0,1.0,1,1.0,0.356000999999992
247,4,0.2,100.0,1.0,1,1.0,0.6899010000000771
248,4,0.2,100.0,1.0,1,1.0,0.7529009999999516
249,4,0.2,0.0,1.0,-1,0.0,2.823101000000065
250,4,0.2,12.5,-1.0,-1,1.0,0.9910010000000966
251,4,0.2,6.25,1.0,-1,0.0,1.1233010000000831
252,4,0.2,25.0,-1.0,-1,1.0,0.4047009999999318
253,4,0.2,100.0,1.0,1,1.0,0.44850099999996473
254,4,0.2,100.0,1.0,1,1.0,1.792201000000091
255,4,0.2,100.0,1.0,1,1.0,0.5677010000000564
256,4,0.2,25.0,1.0,1,1.0,3.2648010000001477
257,4,0.2,0.0,1.0,1,1.0,6.668200999999954
258,4,0.2,0.0,-1.0,1,0.0,8.024201000000062
259,4,0.2,6.25,1.0,1,1.0,14.667501000000016
260,4,0.2,6.25,1.0,1,1.0,0.8418010000000322
261,4,0.2,25.0,-1.0,-1,1.0,0.8934010000000399
262,4,0.2,0.0,1.0,1,1.0,7.407901000000038
263,4,0.2,25.0,1.0,1,1.0,1.082100999999966
264,4,0.2,6.25,1.0,1,1.0,1.5443010000000186
265,4,0.2,6.25,1.0,1,1.0,6.589601000000016
266,4,0.2,12.5,-1.0,-1,1.0,0.4900009999998929
267,4,0.2,100.0,1.0,1,1.0,0.6986010000000533
268,4,0.2,25.0,1.0,1,1.0,1.0647010000000137
269,4,0.2,100.0,1.0,1,1.0,7.267201
270,4,0.2,12.5,1.0,1,1.0,1.5276010000000042
271,4,0.2,25.0,1.0,1,1.0,7.736300999999912
272,4,0.2,12.5,-1.0,1,0.0,16.873300999999856
273,4,0.2,25.0,-1.0,1,0.0,26.97040099999981
274,4,0.2,0.0,1.0,1,1.0,30.177601000000095
275,4,0.2,0.0,1.0,1,1.0,1.0678009999999176
276,4,0.2,100.0,1.0,1,1.0,4.890200999999934
277,4,0.2,12.5,1.0,1,1.0,2.024901
278,4,0.2,25.0,1.0,1,1.0,3.2738010000000486
279,4,0.2,100.0,1.0,1,1.0,0.695500999999922
280,4,0.2,100.0,-1.0,-1,1.0,3.7148010000000795
281,4,0.2,100.0,1.0,1,1.0,0.5065010000000711
282,4,0.2,25.0,1.0,1,1.0,1.5925010000000839
283,4,0.2,12.5,1.0,1,1.0,25.79490099999998
284,4,0.2,100.0,1.0,1,1.0,2.609700999999859
285,4,0.2,12.5,1.0,1,1.0,1.4384010000001126
286,4,0.2,12.5,1.0,1,1.0,3.417400999999927
287,4,0.2,25.0,1.0,1,1.0,13.275200999999925
288,4,0.2,0.0,1.0,1,1.0,3.210501000000022
289,4,0.2,100.0,1.0,1,1.0,0.7790010000001075
290,4,0.2,25.0,1.0,1,1.0,4.648201000000199
291,4,0.2,25.0,1.0,1,1.0,7.0994009999999435
292,4,0.2,100.0,-1.0,-1,1.0,0.5898999999999432
293,4,0.2,6.25,1.0,1,1.0,32.94550099999992
294,4,0.2,100.0,1.0,1,1.0,0.29490099999998165
295,4,0.2,25.0,1.0,1,1.0,1.1043009999998503
296,4,0.2,6.25,1.0,1,1.0,40.210100999999895
297,4,0.2,12.5,-1.0,1,0.0,0.2105010000002494
298,4,0.2,25.0,1.0,1,1.0,4.1994009999998525
299,4,0.2,25.0,1.0,1,1.0,1.2742010000001756
300,4,0.2,25.0,-1.0,1,0.0,1.9865010000000893
301,4,0.8,12.5,1.0,1,1.0,14.831801000000041
302,4,0.8,100.0,-1.0,1,0.0,26.376700999999912
303,4,0.8,12.5,-1.0,1,0.0,53.08070100000009
304,4,0.8,12.5,1.0,1,1.0,40.67950100000007
305,4,0.8,12.5,-1.0,1,0.0,4.199701000000232
306,4,0.8,6.25,-1.0,1,0.0,39.06410099999994
307,4,0.8,100.0,-1.0,-1,1.0,0.741200999999819
308,4,0.8,6.25,-1.0,-1,1.0,10.480499999999893
309,4,0.8,0.0,-1.0,-1,1.0,12.966801000000032
310,4,0.8,25.0,-1.0,-1,1.0,1.0855010000002494
311,4,0.8,6.25,-1.0,-1,1.0,0.9380009999999857
312,4,0.8,25.0,-1.0,-1,1.0,1.5305009999999584
313,4,0.8,25.0,-1.0,-1,1.0,0.43950100000029124
314,4,0.8,0.0,-1.0,1,0.0,0.44550100000014936
315,4,0.8,25.0,-1.0,-1,1.0,0.3646009999999933
316,4,0.8,6.25,-1.0,-1,1.0,1.3139010000002145
317,4,0.8,6.25,-1.0,-1,1.0,0.17970100000002276
318,4,0.8,100.0,-1.0,-1,1.0,0.34900100000004386
319,4,0.8,6.25,-1.0,-1,1.0,1.2984010000000126
320,4,0.8,12.5,-1.0,-1,1.0,0.644200999999839
321,4,0.8,25.0,-1.0,-1,1.0,0.5968010000001414
322,4,0.8,6.25,1.0,1,1.0,0.6994010000003072
323,4,0.8,100.0,-1.0,-1,1.0,0.4487010000002556
324,4,0.8,6.25,-1.0,-1,1.0,1.7547009999998409
325,4,0.8,0.0,-1.0,-1,1.0,0.10370100000000093
326,4,0.8,25.0,1.0,1,1.0,3.1765009999999165
327,4,0.8,12.5,-1.0,1,0.0,7.29420099999993
328,4,0.8,25.0,-1.0,-1,1.0,4.5077000000001135
329,4,0.8,25.0,-1.0,-1,1.0,0.4724010000002181
330,4,0.8,12.5,-1.0,-1,1.0,0.3551009999998769
331,4,0.8,25.0,-1.0,-1,1.0,1.0278009999997266
332,4,0.8,25.0,-1.0,-1,1.0,11.815601000000015
333,4,0.8,25.0,-1.0,-1,1.0,0.7914010000001781
334,4,0.8,25.0,-1.0,-1,1.0,0.31410099999970953
335,4,0.8,100.0,-1.0,-1,1.0,0.26670100000001185
336,4,0.8,100.0,-1.0,-1,1.0,0.44610099999999875
337,4,0.8,12.5,-1.0,-1,1.0,0.8655009999997674
338,4,0.8,12.5,-1.0,-1,1.0,0.3080010000001039
339,4,0.8,6.25,1.0,1,1.0,1.4174010000001545
340,4,0.8,12.5,-1.0,-1,1.0,0.5860009999998965
341,4,0.8,6.25,-1.0,1,0.0,1.9887010000002192
342,4,0.8,12.5,-1.0,-1,1.0,0.737201000000141
343,4,0.8,12.5,1.0,1,1.0,0.6532009999998536
344,4,0.8,100.0,-1.0,-1,1.0,0.479001000000153
345,4,0.8,25.0,-1.0,-1,1.0,0.6317010000000209
346,4,0.8,12.5,-1.0,-1,1.0,0.8143010000001141
347,4,0.8,100.0,-1.0,-1,1.0,0.5168009999999867
348,4,0.8,6.25,-1.0,-1,1.0,7.7062009999999646
349,4,0.8,12.5,1.0,1,1.0,1.7033010000000104
350,4,0.8,100.0,-1.0,-1,1.0,0.4256009999999151
351,4,0.8,6.25,-1.0,-1,1.0,5.198300999999901
352,4,0.8,12.5,-1.0,1,0.0,1.8762010000000373
353,4,0.8,100.0,1.0,1,1.0,0.3780010000000402
354,4,0.8,100.0,-1.0,1,0.0,2.854001000000153
355,4,0.8,25.0,-1.0,1,0.0,3.8523009999998976
356,4,0.8,6.25,-1.0,-1,1.0,2.973300999999992
357,4,0.8,12.5,-1.0,-1,1.0,7.125100999999859
358,4,0.8,25.0,-1.0,-1,1.0,1.0358009999999922
359,4,0.8,25.0,1.0,1,1.0,14.721601000000192
360,4,0.2,25.0,1.0,1,1.0,0.6433010000002923
361,4,0.2,25.0,1.0,1,1.0,0.26250100000015664
362,4,0.2,12.5,1.0,1,1.0,3.1053009999998267
363,4,0.2,100.0,1.0,1,1.0,9.609400999999934
364,4,0.2,12.5,1.0,1,1.0,17.182600999999977
365,4,0.2,25.0,1.0,1,1.0,0.29340099999990343
366,4,0.2,12.5,1.0,1,1.0,4.302801000000045
367,4,0.2,100.0,1.0,1,1.0,0.19740100000012717
368,4,0.2,6.25,1.0,1,1.0,0.6296010000003207
369,4,0.2,12.5,1.0,1,1.0,3.4087009999998372
370,4,0.2,12.5,1.0,1,1.0,2.097201000000041
371,4,0.2,6.25,-1.0,1,0.0,2.1193009999999504
372,4,0.2,0.0,1.0,1,1.0,38.3511010000002
373,4,0.2,0.0,1.0,-1,0.0,0.5681010000000697
374,4,0.2,100.0,-1.0,1,0.0,41.13050099999987
375,4,0.2,100.0,-1.0,1,0.0,36.82270100000005
376,4,0.2,12.5,-1.0,1,0.0,36.92390099999989
378,4,0.2,25.0,-1.0,1,0.0,1.2955010000000584
379,4,0.2,100.0,1.0,1,1.0,1.561001000000033
380,4,0.2,100.0,1.0,1,1.0,1.3633009999998649
381,4,0.2,25.0,1.0,1,1.0,0.312300999999934
382,4,0.2,25.0,-1.0,1,0.0,5.478400999999849
383,4,0.2,12.5,1.0,1,1.0,0.40910100000019156
384,4,0.2,12.5,1.0,1,1.0,2.3385010000001785
385,4,0.2,12.5,1.0,1,1.0,2.4738009999996393
386,4,0.2,0.0,1.0,1,1.0,0.5624010000001363
387,4,0.2,6.25,1.0,1,1.0,25.951700999999957
388,4,0.2,12.5,1.0,1,1.0,3.4565010000001166
389,4,0.2,6.25,1.0,1,1.0,1.9650010000000293
390,4,0.2,6.25,1.0,1,1.0,1.9971009999999296
391,4,0.2,12.5,-1.0,1,0.0,13.315901000000395
392,4,0.2,0.0,1.0,1,1.0,6.561001000000033
393,4,0.2,25.0,1.0,1,1.0,4.481701000000157
394,4,0.2,25.0,1.0,1,1.0,1.2663010000001123
395,4,0.2,12.5,-1.0,1,0.0,14.174200999999812
397,4,0.2,6.25,1.0,1,1.0,0.18270099999972444
398,4,0.2,6.25,1.0,1,1.0,1.688900999999987
399,4,0.2,0.0,-1.0,1,0.0,53.777901000000384
400,4,0.2,0.0,1.0,1,1.0,32.34710100000029
401,4,0.2,100.0,1.0,1,1.0,21.32940099999996
402,4,0.2,100.0,1.0,1,1.0,0.2985009999997601
1,5,0.8,100.0,1.0,1,1.0,0.48489999999999966
2,5,0.8,100.0,1.0,1,1.0,0.6113999999999988
3,5,0.8,25.0,-1.0,-1,1.0,0.5558999999999994
4,5,0.8,25.0,-1.0,-1,1.0,0.04630000000000045
5,5,0.8,25.0,-1.0,-1,1.0,1.0407999999999973
6,5,0.8,12.5,-1.0,-1,1.0,4.090699999999998
7,5,0.8,12.5,-1.0,-1,1.0,0.8131999999999984
8,5,0.8,0.0,-1.0,-1,1.0,5.0833999999999975
9,5,0.8,12.5,-1.0,-1,1.0,0.3867000000000047
10,5,0.8,25.0,-1.0,-1,1.0,0.3535000000000039
11,5,0.8,6.25,-1.0,1,0.0,20.6948
12,5,0.8,12.5,-1.0,1,0.0,
13,5,0.8,0.0,-1.0,-1,1.0,
14,5,0.8,6.25,-1.0,-1,1.0,
15,5,0.8,6.25,-1.0,1,0.0,
16,5,0.8,25.0,-1.0,1,0.0,
17,5,0.8,25.0,-1.0,-1,1.0,
18,5,0.8,6.25,-1.0,-1,1.0,
19,5,0.8,25.0,-1.0,-1,1.0,0.5614000000000203
20,5,0.8,6.25,-1.0,-1,1.0,5.217600000000033
21,5,0.8,25.0,-1.0,-1,1.0,5.765800000000013
22,5,0.8,25.0,1.0,-1,0.0,7.41119999999998
23,5,0.8,12.5,-1.0,-1,1.0,15.32220000000001
24,5,0.8,100.0,-1.0,-1,1.0,0.4405000000000143
25,5,0.8,25.0,1.0,1,1.0,8.234799999999979
26,5,0.8,100.0,-1.0,1,0.0,6.25569999999999
27,5,0.8,25.0,-1.0,-1,1.0,27.552600000000012
28,5,0.8,12.5,1.0,1,1.0,7.656000000000006
29,5,0.8,0.0,-1.0,1,0.0,9.14590000000004
30,5,0.8,25.0,1.0,1,1.0,0.6927000000000589
31,5,0.8,25.0,1.0,1,1.0,1.8403000000000134
32,5,0.8,100.0,-1.0,1,0.0,6.9354999999999905
33,5,0.8,100.0,-1.0,-1,1.0,0.9449999999999932
34,5,0.8,6.25,-1.0,1,0.0,7.46690000000001
35,5,0.8,0.0,-1.0,1,0.0,11.77170000000001
36,5,0.8,100.0,1.0,1,1.0,0.9790000000000418
37,5,0.8,25.0,-1.0,1,0.0,12.53980000000007
38,5,0.8,100.0,-1.0,1,0.0,3.0792000000000144
39,5,0.8,6.25,-1.0,1,0.0,22.064399999999978
40,5,0.8,12.5,-1.0,-1,1.0,16.092900000000043
41,5,0.8,100.0,-1.0,-1,1.0,0.7085999999999899
42,5,0.8,0.0,-1.0,1,0.0,15.444500000000005
43,5,0.8,6.25,-1.0,1,0.0,26.999600000000044
44,5,0.8,0.0,-1.0,1,0.0,58.46199999999999
45,5,0.8,6.25,-1.0,-1,1.0,32.44690000000003
46,5,0.8,100.0,1.0,1,1.0,0.7683000000000675
47,5,0.8,25.0,-1.0,1,0.0,55.73689999999999
49,5,0.8,6.25,-1.0,1,0.0,23.581999999999994
50,5,0.8,6.25,-1.0,1,0.0,18.834799999999973
51,5,0.8,12.5,-1.0,1,0.0,35.43179999999995
52,5,0.8,100.0,-1.0,1,0.0,0.8449000000000524
54,5,0.8,6.25,-1.0,1,0.0,1.0353000000000065
1,6,0.2,12.5,1.0,1,1.0,6.866999999999999
2,6,0.2,0.0,1.0,1,1.0,0.9698000000000011
3,6,0.2,12.5,-1.0,-1,1.0,0.5057000000000009
4,6,0.2,0.0,-1.0,-1,1.0,2.744300000000001
5,6,0.2,6.25,1.0,1,1.0,0.9052999999999969
6,6,0.2,100.0,1.0,1,1.0,0.4140999999999977
7,6,0.2,6.25,-1.0,1,0.0,1.5272999999999968
8,6,0.2,12.5,1.0,1,1.0,0.35029999999999717
9,6,0.2,25.0,-1.0,-1,1.0,0.5713000000000008
10,6,0.2,100.0,1.0,1,1.0,0.2873999999999981
11,6,0.2,6.25,-1.0,-1,1.0,1.6758999999999986
12,6,0.2,6.25,1.0,1,1.0,0.26379999999999626
13,6,0.2,100.0,1.0,1,1.0,0.48919999999999675
14,6,0.2,6.25,1.0,1,1.0,0.17749999999999488
15,6,0.2,25.0,1.0,1,1.0,1.5638000000000005
16,6,0.2,6.25,-1.0,1,0.0,0.2365999999999957
17,6,0.2,25.0,1.0,1,1.0,0.30939999999998946
18,6,0.2,25.0,1.0,1,1.0,0.6336999999999975
19,6,0.2,0.0,1.0,1,1.0,0.3031000000000006
20,6,0.2,6.25,-1.0,1,0.0,1.7375000000000043
21,6,0.2,25.0,-1.0,-1,1.0,0.34240000000001203
22,6,0.2,12.5,1.0,1,1.0,0.3259000000000043
23,6,0.2,100.0,-1.0,-1,1.0,0.5275000000000034
24,6,0.2,25.0,1.0,1,1.0,0.26659999999999684
25,6,0.8,25.0,-1.0,1,0.0,1.0705999999999847
26,6,0.8,0.0,-1.0,1,0.0,0.2790999999999997
27,6,0.8,6.25,1.0,1,1.0,0.3626000000000005
28,6,0.8,12.5,1.0,1,1.0,0.2986000000000075
29,6,0.8,6.25,-1.0,-1,1.0,2.2753000000000014
30,6,0.8,6.25,-1.0,1,0.0,1.8104999999999905
31,6,0.8,25.0,-1.0,-1,1.0,0.32140000000001123
32,6,0.8,6.25,-1.0,-1,1.0,4.351100000000002
33,6,0.8,100.0,-1.0,-1,1.0,0.3318000000000012
34,6,0.8,12.5,-1.0,1,0.0,2.2021999999999906
35,6,0.8,12.5,1.0,1,1.0,0.5036000000000058
36,6,0.8,6.25,-1.0,-1,1.0,0.5040000000000049
37,6,0.8,25.0,-1.0,-1,1.0,0.48910000000000764
38,6,0.8,12.5,-1.0,-1,1.0,0.5940000000000083
39,6,0.8,25.0,-1.0,-1,1.0,0.5629999999999882
40,6,0.8,100.0,-1.0,-1,1.0,0.3873999999999853
41,6,0.8,6.25,-1.0,1,0.0,0.9673999999999978
42,6,0.8,12.5,-1.0,-1,1.0,0.384399999999971
43,6,0.8,6.25,-1.0,-1,1.0,0.4440999999999917
44,6,0.8,6.25,-1.0,-1,1.0,0.22579999999999245
45,6,0.8,100.0,-1.0,-1,1.0,0.40800000000001546
46,6,0.2,25.0,1.0,1,1.0,0.40289999999998827
47,6,0.2,6.25,1.0,1,1.0,2.504899999999992
48,6,0.2,100.0,1.0,1,1.0,0.07779999999999632
49,6,0.2,25.0,1.0,1,1.0,0.6964999999999861
50,6,0.2,100.0,1.0,1,1.0,0.2781999999999982
51,6,0.2,0.0,1.0,1,1.0,0.5217000000000098
52,6,0.2,100.0,1.0,1,1.0,0.3247000000000071
53,6,0.2,12.5,1.0,1,1.0,0.1728999999999985
54,6,0.2,12.5,1.0,1,1.0,0.31460000000001287
55,6,0.2,12.5,1.0,1,1.0,1.9326000000000079
56,6,0.2,12.5,1.0,1,1.0,0.1618999999999744
57,6,0.2,100.0,1.0,1,1.0,0.10540000000000305
58,6,0.2,12.5,1.0,1,1.0,1.6924999999999955
59,6,0.2,0.0,-1.0,1,0.0,1.4777999999999736
60,6,0.2,100.0,1.0,1,1.0,0.2663000000000011
61,6,0.2,100.0,1.0,1,1.0,0.23529999999999518
62,6,0.2,6.25,1.0,1,1.0,1.3687999999999931
63,6,0.2,12.5,1.0,1,1.0,0.36489999999997735
64,6,0.2,12.5,1.0,1,1.0,0.7979999999999734
65,6,0.2,25.0,1.0,1,1.0,0.2523999999999944
66,6,0.2,6.25,1.0,1,1.0,0.10030000000000427
67,6,0.2,12.5,1.0,1,1.0,0.4747000000000128
68,6,0.2,25.0,-1.0,-1,1.0,0.3059000000000083
69,6,0.2,12.5,1.0,1,1.0,0.6644000000000005
70,6,0.2,0.0,1.0,1,1.0,1.9200999999999908
71,6,0.2,6.25,1.0,1,1.0,0.487199999999973
72,6,0.2,0.0,-1.0,1,0.0,1.4967000000000041
73,6,0.2,100.0,1.0,1,1.0,0.28530000000000655
74,6,0.2,12.5,1.0,1,1.0,0.13909900000001585
75,6,0.2,100.0,-1.0,-1,1.0,0.5374999999999659
76,6,0.2,6.25,1.0,-1,0.0,0.5007999999999981
77,6,0.2,25.0,1.0,1,1.0,0.35880000000000223
78,6,0.2,100.0,-1.0,1,0.0,0.7430999999999983
79,6,0.2,0.0,1.0,1,1.0,0.5203999999999667
80,6,0.2,100.0,-1.0,1,0.0,3.1260000000000048
81,6,0.2,100.0,1.0,1,1.0,0.36470000000002756
82,6,0.2,100.0,1.0,1,1.0,0.31229999999999336
83,6,0.2,100.0,1.0,1,1.0,0.780900000000031
84,6,0.2,100.0,1.0,1,1.0,0.3099000000000274
85,6,0.2,0.0,-1.0,1,0.0,1.4728000000000065
86,6,0.2,6.25,1.0,1,1.0,0.37290000000001555
87,6,0.2,100.0,1.0,1,1.0,0.6273000000000479
88,6,0.2,6.25,1.0,1,1.0,1.7404999999999973
89,6,0.2,25.0,1.0,1,1.0,0.552599999999984
90,6,0.2,100.0,1.0,1,1.0,0.2418999999999869
91,6,0.2,25.0,1.0,1,1.0,0.22520000000002938
92,6,0.2,12.5,-1.0,-1,1.0,1.42410000000001
93,6,0.2,0.0,1.0,-1,0.0,1.7644000000000233
94,6,0.2,12.5,1.0,1,1.0,0.6430999999999472
95,6,0.2,25.0,-1.0,-1,1.0,0.7119000000000142
96,6,0.2,12.5,1.0,1,1.0,0.69500000000005
97,6,0.2,6.25,1.0,1,1.0,0.41370000000000573
98,6,0.2,100.0,1.0,1,1.0,0.4327000000000112
99,6,0.8,6.25,-1.0,-1,1.0,0.4601000000000113
100,6,0.8,100.0,-1.0,-1,1.0,1.7894000000000005
101,6,0.8,0.0,1.0,1,1.0,0.5323000000000206
102,6,0.8,25.0,-1.0,-1,1.0,0.2658000000000129
103,6,0.8,6.25,-1.0,1,0.0,0.17430000000001655
104,6,0.8,6.25,-1.0,-1,1.0,0.3976000000000113
105,6,0.8,6.25,-1.0,-1,1.0,0.3247000000000071
106,6,0.8,12.5,-1.0,-1,1.0,0.26370000000002847
107,6,0.8,12.5,1.0,1,1.0,0.7349000000000387
108,6,0.8,0.0,1.0,-1,0.0,0.2668000000000461
109,6,0.8,0.0,-1.0,-1,1.0,0.09530000000000882
110,6,0.8,0.0,-1.0,1,0.0,2.978499999999997
111,6,0.8,12.5,-1.0,-1,1.0,0.4519999999999982
112,6,0.8,100.0,-1.0,-1,1.0,0.47879999999997835
113,6,0.8,12.5,-1.0,-1,1.0,0.24049999999999727
114,6,0.8,0.0,-1.0,-1,1.0,0.10250000000002046
115,6,0.8,6.25,-1.0,1,0.0,0.2661000000000513
116,6,0.8,6.25,-1.0,-1,1.0,0.3428000000000111
117,6,0.8,25.0,-1.0,-1,1.0,0.6852000000000089
118,6,0.8,6.25,-1.0,-1,1.0,0.6458000000000084
119,6,0.8,12.5,-1.0,-1,1.0,0.42799999999994043
120,6,0.8,100.0,-1.0,-1,1.0,1.5507000000000062
121,6,0.8,6.25,-1.0,-1,1.0,0.29710000000000036
122,6,0.8,25.0,-1.0,-1,1.0,0.6384000000000469
123,6,0.8,6.25,1.0,-1,0.0,1.1494000000000142
124,6,0.8,6.25,1.0,1,1.0,0.4438999999999851
125,6,0.8,12.5,-1.0,-1,1.0,0.5465000000000373
126,6,0.2,12.5,1.0,1,1.0,1.8812000000000353
127,6,0.2,0.0,1.0,-1,0.0,0.2807999999999993
128,6,0.2,12.5,1.0,1,1.0,0.38170000000002346
129,6,0.2,100.0,1.0,1,1.0,0.3317000000000121
130,6,0.2,6.25,1.0,1,1.0,0.9345000000000141
131,6,0.2,100.0,1.0,1,1.0,0.36489999999997735
132,6,0.2,25.0,1.0,1,1.0,0.06379999999995789
133,6,0.2,100.0,1.0,1,1.0,0.6809000000000083
134,6,0.2,6.25,1.0,1,1.0,0.40629999999998745
135,6,0.2,12.5,-1.0,1,0.0,0.8678999999999633
136,6,0.2,12.5,1.0,1,1.0,0.2913000000000352
137,6,0.2,100.0,1.0,1,1.0,0.25530000000003383
138,6,0.2,12.5,1.0,1,1.0,0.8767999999999461
139,6,0.2,100.0,1.0,1,1.0,0.3009999999999877
140,6,0.2,100.0,1.0,1,1.0,0.8349000000000046
141,6,0.2,0.0,1.0,1,1.0,0.8027999999999906
142,6,0.2,12.5,-1.0,-1,1.0,0.9338000000000193
143,6,0.2,25.0,1.0,1,1.0,0.49670000000003256
144,6,0.2,100.0,1.0,1,1.0,0.3170000000000073
145,6,0.2,100.0,1.0,1,1.0,1.0051999999999452
146,6,0.2,100.0,-1.0,1,0.0,0.33080000000001064
147,6,0.2,12.5,-1.0,1,0.0,6.598698999999954
148,6,0.2,0.0,1.0,1,1.0,46.593800000000044
149,6,0.2,12.5,1.0,1,1.0,2.564799999999991
150,6,0.2,12.5,-1.0,1,0.0,1.2068000000000438
151,6,0.2,100.0,1.0,1,1.0,53.74640000000011
152,6,0.2,6.25,1.0,1,1.0,0.12639999999998963
153,6,0.2,12.5,-1.0,1,0.0,1.463200000000029
154,6,0.2,12.5,1.0,1,1.0,0.8089000000001079
155,6,0.2,6.25,1.0,1,1.0,0.20180000000004839
156,6,0.8,25.0,1.0,1,1.0,0.4246000000001686
157,6,0.8,0.0,-1.0,1,0.0,1.6292000000000826
158,6,0.8,12.5,-1.0,1,0.0,7.530100000000061
159,6,0.8,6.25,-1.0,1,0.0,16.195799999999963
160,6,0.8,100.0,-1.0,1,0.0,13.927600000000098
161,6,0.8,6.25,-1.0,1,0.0,56.32080000000008
162,6,0.8,100.0,1.0,1,1.0,9.47930000000008
163,6,0.8,25.0,-1.0,-1,1.0,3.134200000000078
164,6,0.8,6.25,-1.0,-1,1.0,0.8006000000000313
165,6,0.8,100.0,-1.0,-1,1.0,2.4669000000001233
166,6,0.8,100.0,-1.0,-1,1.0,0.5930000000000746
167,6,0.8,25.0,-1.0,-1,1.0,2.560799999999972
168,6,0.8,100.0,-1.0,-1,1.0,0.5347000000000435
169,6,0.8,6.25,1.0,-1,0.0,1.028099999999995
170,6,0.8,6.25,-1.0,-1,1.0,0.4008000000001175
171,6,0.8,0.0,-1.0,1,0.0,2.8061000000001286
172,6,0.8,12.5,-1.0,-1,1.0,0.5312000000000126
173,6,0.8,100.0,-1.0,-1,1.0,0.5139000000000351
174,6,0.8,12.5,-1.0,-1,1.0,0.6309000000001106
175,6,0.8,6.25,-1.0,-1,1.0,0.45270000000004984
176,6,0.8,100.0,-1.0,-1,1.0,0.4370999999999867
177,6,0.8,100.0,-1.0,-1,1.0,0.7857000000001335
178,6,0.8,0.0,-1.0,1,0.0,1.3196000000001504
179,6,0.8,6.25,-1.0,-1,1.0,0.7798999999999978
180,6,0.8,6.25,1.0,1,1.0,0.6653999999999769
181,6,0.8,25.0,-1.0,-1,1.0,1.2092000000000098
182,6,0.8,0.0,-1.0,1,0.0,2.3695999999999913
183,6,0.8,25.0,-1.0,-1,1.0,0.9301000000000386
184,6,0.8,12.5,1.0,1,1.0,0.374300000000062
185,6,0.8,100.0,-1.0,-1,1.0,0.5501000000000431
186,6,0.8,6.25,-1.0,1,0.0,0.38990000000001146
187,6,0.8,6.25,-1.0,-1,1.0,1.2019000000000233
188,6,0.8,100.0,-1.0,-1,1.0,0.678000000000111
189,6,0.8,12.5,-1.0,-1,1.0,0.49720000000002074
190,6,0.8,6.25,-1.0,-1,1.0,0.7717999999999847
191,6,0.8,0.0,-1.0,1,0.0,0.18210000000010496
192,6,0.8,6.25,1.0,1,1.0,0.363100000000145
193,6,0.8,12.5,-1.0,-1,1.0,1.6235000000001492
194,6,0.8,12.5,-1.0,-1,1.0,0.6654000000002043
195,6,0.8,25.0,1.0,1,1.0,1.1587000000000671
196,6,0.8,12.5,-1.0,1,0.0,4.7672000000000025
197,6,0.8,6.25,-1.0,-1,1.0,14.806500000000028
198,6,0.8,6.25,1.0,1,1.0,2.225400000000036
199,6,0.8,6.25,-1.0,-1,1.0,0.7327000000001362
200,6,0.8,100.0,-1.0,-1,1.0,0.6272000000000162
201,6,0.8,6.25,1.0,1,1.0,1.8383000000000038
202,6,0.8,100.0,-1.0,-1,1.0,0.7092000000001235
203,6,0.8,100.0,-1.0,-1,1.0,0.1914000000000442
204,6,0.8,100.0,-1.0,-1,1.0,1.0592000000000326
205,6,0.8,100.0,-1.0,-1,1.0,0.4333000000001448
206,6,0.8,25.0,1.0,1,1.0,1.4021000000001322
207,6,0.8,12.5,-1.0,-1,1.0,2.16680000000008
208,6,0.8,6.25,-1.0,1,0.0,3.7847000000000435
209,6,0.8,100.0,-1.0,-1,1.0,0.4175000000000182
210,6,0.8,25.0,-1.0,-1,1.0,2.0725000000001046
211,6,0.8,12.5,1.0,1,1.0,0.739400000000046
212,6,0.8,6.25,-1.0,1,0.0,47.584299999999985
213,6,0.8,25.0,1.0,1,1.0,5.495400000000018
214,6,0.8,0.0,-1.0,1,0.0,1.5638999999999896
215,6,0.8,12.5,1.0,1,1.0,47.6943
216,6,0.8,12.5,-1.0,1,0.0,4.507399999999961
217,6,0.8,100.0,-1.0,1,0.0,16.21510000000012
218,6,0.8,12.5,-1.0,1,0.0,36.63590000000022
219,6,0.8,100.0,-1.0,1,0.0,3.4890000000000327
220,6,0.8,25.0,-1.0,1,0.0,37.753799999999956
222,6,0.2,12.5,1.0,1,1.0,2.1875
223,6,0.2,25.0,1.0,1,1.0,2.522899999999936
224,6,0.2,6.25,-1.0,1,0.0,16.2650000000001
225,6,0.2,100.0,1.0,1,1.0,18.80910000000017
226,6,0.2,0.0,1.0,1,1.0,59.41280000000006
227,6,0.2,12.5,-1.0,-1,1.0,1.070600000000013
228,6,0.2,25.0,1.0,1,1.0,1.3297000000000025
229,6,0.2,0.0,1.0,1,1.0,36.45060000000012
230,6,0.2,12.5,1.0,1,1.0,2.743199999999888
231,6,0.2,6.25,1.0,1,1.0,5.2349999999999
232,6,0.2,6.25,1.0,1,1.0,15.602800000000116
233,6,0.2,12.5,1.0,1,1.0,26.18419999999992
234,6,0.2,0.0,1.0,1,1.0,38.3121000000001
235,6,0.2,12.5,1.0,1,1.0,3.2531000000001313
236,6,0.2,25.0,1.0,1,1.0,0.44489999999996144
237,6,0.2,12.5,1.0,1,1.0,0.5275000000001455
238,6,0.2,25.0,-1.0,-1,1.0,3.0169000000003052
239,6,0.2,0.0,1.0,1,1.0,0.738800000000083
240,6,0.2,12.5,1.0,1,1.0,1.1213000000000193
241,6,0.2,12.5,1.0,1,1.0,0.36959999999999127
242,6,0.2,25.0,-1.0,1,0.0,9.35530000000017
243,6,0.2,100.0,1.0,1,1.0,10.91430000000014
244,6,0.2,12.5,1.0,1,1.0,16.99700000000007
245,6,0.2,12.5,1.0,1,1.0,43.934600000000046
246,6,0.2,0.0,-1.0,1,0.0,48.1739
247,6,0.2,25.0,1.0,1,1.0,41.544399999999996
248,6,0.2,12.5,1.0,1,1.0,5.634500000000116
249,6,0.2,6.25,1.0,1,1.0,32.64550000000031
250,6,0.2,0.0,-1.0,1,0.0,45.107800000000225
251,6,0.2,12.5,1.0,1,1.0,30.492999999999938
252,6,0.2,0.0,1.0,1,1.0,10.70640000000003
253,6,0.2,100.0,1.0,1,1.0,17.83920000000012
254,6,0.8,6.25,-1.0,1,0.0,9.845499999999902
255,6,0.8,100.0,-1.0,-1,1.0,5.201800000000048
256,6,0.8,25.0,-1.0,1,0.0,19.176200000000108
257,6,0.8,12.5,-1.0,1,0.0,25.076099999999997
258,6,0.8,25.0,-1.0,1,0.0,50.183500000000095
259,6,0.8,6.25,1.0,1,1.0,21.907300000000077
260,6,0.8,12.5,-1.0,1,0.0,6.169999999999845
261,6,0.8,12.5,-1.0,1,0.0,25.80060000000003
262,6,0.8,0.0,-1.0,1,0.0,8.141600000000153
264,6,0.8,100.0,-1.0,-1,1.0,0.4788999999996122
265,6,0.8,100.0,-1.0,-1,1.0,0.7121999999999389
266,6,0.8,100.0,-1.0,1,0.0,1.9767000000001644
267,6,0.8,25.0,-1.0,1,0.0,42.305599999999686
268,6,0.8,6.25,-1.0,1,0.0,26.314699999999903
269,6,0.8,12.5,-1.0,1,0.0,3.995299999999588
270,6,0.8,100.0,-1.0,1,0.0,47.059799999999996
271,6,0.8,0.0,-1.0,1,0.0,1.9976999999998952
272,6,0.8,6.25,-1.0,1,0.0,3.9089999999996508
273,6,0.8,25.0,-1.0,1,0.0,11.187699999999495
274,6,0.8,100.0,-1.0,1,0.0,3.559499999999389
275,6,0.8,25.0,-1.0,1,0.0,51.08719999999994
276,6,0.8,100.0,-1.0,1,0.0,34.2507999999998
278,6,0.8,25.0,-1.0,1,0.0,3.243999999999687
279,6,0.8,25.0,-1.0,1,0.0,1.3004000000000815
280,6,0.8,0.0,-1.0,1,0.0,55.7190999999998
281,6,0.8,6.25,-1.0,1,0.0,45.74129999999968
282,6,0.8,6.25,-1.0,1,0.0,48.89589999999953
283,6,0.8,12.5,-1.0,1,0.0,33.05319999999983
284,6,0.8,0.0,-1.0,1,0.0,18.265300000000025
285,6,0.8,12.5,-1.0,1,0.0,20.34960000000001
1,7,0.8,6.25,-1.0,1,0.0,4.583600000000001
2,7,0.8,12.5,-1.0,-1,1.0,0.45250000000000057
3,7,0.8,25.0,1.0,1,1.0,0.3265999999999991
4,7,0.8,12.5,-1.0,1,0.0,0.10060000000000002
5,7,0.8,6.25,-1.0,-1,1.0,0.3160000000000025
6,7,0.8,25.0,1.0,1,1.0,0.3194000000000017
7,7,0.8,100.0,-1.0,-1,1.0,0.6623000000000019
8,7,0.8,6.25,-1.0,-1,1.0,0.40030000000000143
9,7,0.8,6.25,-1.0,-1,1.0,0.0636999999999972
10,7,0.8,12.5,-1.0,-1,1.0,0.29819999999999425
11,7,0.8,6.25,-1.0,-1,1.0,0.3555999999999955
12,7,0.8,25.0,1.0,1,1.0,0.2510999999999939
13,7,0.8,0.0,-1.0,-1,1.0,0.4504000000000019
14,7,0.8,25.0,-1.0,-1,1.0,0.38569999999999993
15,7,0.8,25.0,-1.0,-1,1.0,0.26550000000000296
16,7,0.8,25.0,-1.0,-1,1.0,0.30589999999999407
17,7,0.8,100.0,-1.0,-1,1.0,0.15030000000000143
18,7,0.8,100.0,1.0,1,1.0,0.11930000000000973
19,7,0.8,6.25,1.0,1,1.0,1.2471000000000032
20,7,0.8,0.0,-1.0,1,0.0,0.6315000000000026
21,7,0.8,12.5,1.0,-1,0.0,3.6944000000000017
22,7,0.8,12.5,-1.0,-1,1.0,0.3441000000000116
23,7,0.8,25.0,-1.0,-1,1.0,2.6176999999999992
24,7,0.8,12.5,-1.0,-1,1.0,0.3322000000000003
25,7,0.8,12.5,1.0,1,1.0,0.5819000000000045
26,7,0.8,6.25,-1.0,-1,1.0,2.0304999999999893
27,7,0.8,6.25,-1.0,-1,1.0,0.3019000000000034
28,7,0.8,12.5,-1.0,-1,1.0,0.4771000000000072
29,7,0.8,12.5,-1.0,1,0.0,0.16149999999998954
30,7,0.8,0.0,-1.0,1,0.0,3.009699999999995
31,7,0.8,25.0,-1.0,-1,1.0,0.3942000000000121
32,7,0.8,6.25,-1.0,1,0.0,2.498100000000008
33,7,0.8,12.5,-1.0,-1,1.0,5.481099999999998
34,7,0.8,12.5,-1.0,-1,1.0,0.6828000000000145
35,7,0.8,100.0,-1.0,-1,1.0,0.4411999999999807
36,7,0.8,6.25,-1.0,-1,1.0,0.356899999999996
37,7,0.8,25.0,-1.0,-1,1.0,0.662099999999981
38,7,0.8,25.0,1.0,1,1.0,0.3702999999999861
39,7,0.8,6.25,-1.0,-1,1.0,0.44239999999999213
40,7,0.8,100.0,-1.0,-1,1.0,0.2226999999999748
41,7,0.8,100.0,1.0,1,1.0,0.35069999999998913
42,7,0.8,100.0,1.0,1,1.0,0.32859999999999445
43,7,0.8,0.0,-1.0,1,0.0,1.0772999999999797
44,7,0.8,6.25,1.0,1,1.0,0.4545999999999708
45,7,0.8,25.0,-1.0,-1,1.0,0.4503999999999735
46,7,0.8,6.25,-1.0,-1,1.0,0.2507999999999697
47,7,0.8,25.0,-1.0,-1,1.0,0.5425999999999931
48,7,0.8,25.0,-1.0,-1,1.0,0.032099999999985585
49,7,0.8,12.5,-1.0,-1,1.0,0.23439999999999372
50,7,0.8,25.0,-1.0,-1,1.0,0.5970999999999833
51,7,0.8,12.5,-1.0,-1,1.0,0.2845999999999833
52,7,0.8,6.25,-1.0,-1,1.0,0.28299999999998704
53,7,0.8,6.25,-1.0,-1,1.0,0.717899999999986
54,7,0.8,6.25,-1.0,-1,1.0,0.5893999999999835
55,7,0.8,6.25,-1.0,-1,1.0,0.19559999999998468
56,7,0.8,6.25,1.0,1,1.0,0.48459999999997194
57,7,0.8,100.0,-1.0,-1,1.0,0.561099999999982
58,7,0.2,100.0,1.0,1,1.0,0.5029999999999859
59,7,0.2,6.25,-1.0,1,0.0,0.15349999999997976
60,7,0.2,12.5,-1.0,-1,1.0,3.011599999999987
61,7,0.2,100.0,1.0,1,1.0,0.34699999999998
62,7,0.2,6.25,-1.0,-1,1.0,2.8699000000000012
63,7,0.2,6.25,-1.0,-1,1.0,3.6385999999999967
64,7,0.2,25.0,-1.0,-1,1.0,4.603800000000007
65,7,0.2,0.0,1.0,-1,0.0,0.35969999999997526
66,7,0.2,25.0,1.0,-1,0.0,0.702699999999993
67,7,0.2,0.0,-1.0,-1,1.0,1.5346000000000117
68,7,0.2,6.25,1.0,-1,0.0,1.4361999999999853
69,7,0.2,25.0,1.0,-1,0.0,0.39910000000003265
70,7,0.2,100.0,1.0,1,1.0,0.3996999999999957
71,7,0.2,25.0,1.0,1,1.0,0.5842000000000098
72,7,0.2,25.0,1.0,1,1.0,0.38990000000001146
73,7,0.2,12.5,1.0,1,1.0,0.3591000000000122
74,7,0.2,25.0,1.0,1,1.0,0.3610999999999649
75,7,0.2,0.0,1.0,-1,0.0,2.2735999999999876
76,7,0.2,100.0,-1.0,-1,1.0,0.2633999999999901
77,7,0.2,6.25,1.0,1,1.0,0.5625999999999749
78,7,0.2,6.25,1.0,1,1.0,0.404200000000003
79,7,0.2,12.5,-1.0,-1,1.0,0.7900999999999954
80,7,0.2,25.0,1.0,1,1.0,0.3491999999999962
81,7,0.2,6.25,1.0,1,1.0,1.4026999999999816
82,7,0.2,25.0,-1.0,-1,1.0,0.36599999999998545
83,7,0.2,6.25,1.0,1,1.0,0.8765999999999963
84,7,0.2,25.0,1.0,1,1.0,0.30299999999999727
85,7,0.2,100.0,1.0,1,1.0,0.42849999999998545
86,7,0.2,25.0,1.0,1,1.0,0.23399999999998045
87,7,0.2,100.0,-1.0,-1,1.0,0.4893999999999892
88,7,0.2,25.0,1.0,1,1.0,0.30750000000000455
89,7,0.2,6.25,1.0,1,1.0,0.9969999999999573
90,7,0.2,6.25,1.0,1,1.0,0.33499999999997954
91,7,0.2,100.0,1.0,1,1.0,0.3620999999999981
92,7,0.2,0.0,1.0,1,1.0,1.9250000000000114
93,7,0.2,100.0,1.0,1,1.0,3.823699999999974
94,7,0.2,25.0,1.0,1,1.0,0.2869999999999777
95,7,0.2,100.0,-1.0,-1,1.0,0.4289999999999736
96,7,0.2,12.5,1.0,1,1.0,1.000099999999975
97,7,0.2,6.25,-1.0,-1,1.0,0.34909999999996444
98,7,0.8,6.25,-1.0,-1,1.0,0.28559999999993124
99,7,0.8,25.0,-1.0,-1,1.0,0.6503999999999905
100,7,0.8,25.0,-1.0,-1,1.0,0.35400000000004184
101,7,0.8,6.25,-1.0,-1,1.0,0.8888000000000034
102,7,0.8,12.5,1.0,1,1.0,0.5681999999999903
103,7,0.8,25.0,-1.0,-1,1.0,0.4423999999999637
104,7,0.8,12.5,-1.0,-1,1.0,0.4474999999999909
105,7,0.8,25.0,-1.0,-1,1.0,0.5816999999999553
106,7,0.8,100.0,-1.0,-1,1.0,0.3511999999999489
107,7,0.8,12.5,-1.0,-1,1.0,0.20830000000000837
108,7,0.8,25.0,-1.0,-1,1.0,0.5749999999999886
109,7,0.8,12.5,-1.0,-1,1.0,0.16589999999996508
110,7,0.8,12.5,1.0,1,1.0,0.5784999999999627
111,7,0.8,6.25,-1.0,-1,1.0,1.022799999999961
112,7,0.8,0.0,-1.0,-1,1.0,2.0254999999999654
113,7,0.8,100.0,-1.0,-1,1.0,0.44729999999998427
114,7,0.8,25.0,1.0,1,1.0,2.6831999999999994
115,7,0.8,25.0,1.0,1,1.0,2.7753999999999905
116,7,0.8,25.0,1.0,1,1.0,0.11010000000004538
117,7,0.8,100.0,-1.0,-1,1.0,0.9241000000000099
118,7,0.8,25.0,-1.0,-1,1.0,0.35859999999996717
119,7,0.8,100.0,-1.0,-1,1.0,0.3944999999999368
120,7,0.8,6.25,-1.0,-1,1.0,2.202899999999943
121,7,0.8,25.0,1.0,1,1.0,0.37719999999995935
122,7,0.8,25.0,1.0,1,1.0,0.445699999999988
123,7,0.8,6.25,-1.0,-1,1.0,3.633700000000033
124,7,0.8,6.25,-1.0,-1,1.0,0.2508999999999446
125,7,0.8,100.0,-1.0,-1,1.0,0.07389999999998054
126,7,0.8,6.25,-1.0,-1,1.0,0.36079999999998336
127,7,0.8,100.0,-1.0,-1,1.0,0.3623999999999796
128,7,0.8,12.5,-1.0,-1,1.0,1.91700000000003
129,7,0.8,12.5,-1.0,-1,1.0,0.36480000000000246
130,7,0.8,100.0,-1.0,-1,1.0,0.31469999999995935
131,7,0.8,6.25,1.0,1,1.0,0.8160000000000309
132,7,0.8,12.5,-1.0,-1,1.0,0.3879000000000019
133,7,0.8,0.0,-1.0,-1,1.0,0.39109999999999445
134,7,0.8,25.0,-1.0,-1,1.0,0.44889999999998054
135,7,0.8,6.25,-1.0,-1,1.0,0.5628999999999564
136,7,0.8,25.0,-1.0,-1,1.0,0.43279999999992924
137,7,0.8,25.0,-1.0,-1,1.0,0.8287000000000262
138,7,0.8,6.25,-1.0,-1,1.0,0.4144999999999186
139,7,0.8,12.5,1.0,1,1.0,0.45769999999998845
140,7,0.8,25.0,-1.0,-1,1.0,0.25449999999995043
141,7,0.8,6.25,-1.0,-1,1.0,0.7312000000000012
142,7,0.8,6.25,1.0,-1,0.0,2.1066999999999894
143,7,0.8,100.0,-1.0,-1,1.0,2.8068000000000666
144,7,0.8,25.0,-1.0,-1,1.0,0.6282999999999674
145,7,0.8,25.0,-1.0,-1,1.0,0.2700999999999567
146,7,0.8,0.0,-1.0,-1,1.0,1.2782999999999447
147,7,0.8,100.0,-1.0,-1,1.0,0.21519999999998163
148,7,0.8,12.5,-1.0,-1,1.0,0.3513999999998987
149,7,0.8,25.0,-1.0,-1,1.0,0.2842999999999165
150,7,0.8,12.5,-1.0,-1,1.0,0.4221999999998616
151,7,0.8,25.0,-1.0,-1,1.0,0.3748000000000502
152,7,0.8,25.0,-1.0,-1,1.0,0.4029000000000451
153,7,0.8,25.0,-1.0,-1,1.0,0.4048000000000229
154,7,0.8,0.0,-1.0,-1,1.0,0.5186999999999671
155,7,0.8,25.0,-1.0,-1,1.0,0.6599999999999682
156,7,0.8,12.5,1.0,-1,0.0,3.622099999999932
157,7,0.8,12.5,-1.0,-1,1.0,0.4157000000000153
158,7,0.8,0.0,-1.0,-1,1.0,3.0172999999999774
159,7,0.8,100.0,-1.0,-1,1.0,0.6042999999999665
160,7,0.8,0.0,-1.0,-1,1.0,0.3022999999999456
161,7,0.8,6.25,-1.0,-1,1.0,0.3992999999999256
162,7,0.8,12.5,-1.0,1,0.0,4.308400000000006
163,7,0.8,100.0,-1.0,-1,1.0,0.5309000000000879
164,7,0.8,0.0,-1.0,-1,1.0,3.7047000000000025
165,7,0.8,6.25,-1.0,-1,1.0,2.0118999999999687
166,7,0.8,100.0,1.0,1,1.0,0.31150000000002365
167,7,0.8,25.0,-1.0,-1,1.0,0.7065999999999804
168,7,0.8,6.25,1.0,1,1.0,1.2454000000000178
169,7,0.8,25.0,-1.0,1,0.0,1.2370999999999412
170,7,0.8,100.0,-1.0,-1,1.0,1.3743999999999232
171,7,0.8,12.5,-1.0,-1,1.0,2.2179000000000997
172,7,0.2,100.0,1.0,1,1.0,0.4390999999999394
173,7,0.2,0.0,-1.0,-1,1.0,5.565799999999967
174,7,0.2,6.25,1.0,1,1.0,14.440399999999954
175,7,0.2,6.25,1.0,1,1.0,3.1983999999999924
176,7,0.2,25.0,-1.0,1,0.0,4.167100000000005
177,7,0.2,12.5,1.0,1,1.0,4.722100000000069
178,7,0.2,12.5,-1.0,-1,1.0,2.788099999999986
179,7,0.2,6.25,-1.0,1,0.0,0.9249000000000933
180,7,0.2,0.0,1.0,1,1.0,26.294399999999996
182,7,0.2,0.0,1.0,1,1.0,31.878499999999917
183,7,0.2,25.0,1.0,1,1.0,1.0956999999999653
184,7,0.2,100.0,1.0,1,1.0,16.64569999999992
185,7,0.2,25.0,1.0,1,1.0,16.527000000000044
186,7,0.2,100.0,1.0,1,1.0,6.832699999999932
187,7,0.2,100.0,1.0,1,1.0,14.28690000000006
188,7,0.2,25.0,1.0,1,1.0,22.552800000000047
189,7,0.2,25.0,1.0,1,1.0,12.385099999999966
190,7,0.2,12.5,1.0,1,1.0,24.09730000000002
191,7,0.2,6.25,-1.0,1,0.0,40.137899999999945
192,7,0.2,6.25,1.0,1,1.0,22.446900000000028
193,7,0.2,12.5,1.0,1,1.0,13.57929999999999
194,7,0.2,25.0,1.0,1,1.0,29.254500000000007
195,7,0.2,100.0,-1.0,-1,1.0,0.4675999999999476
196,7,0.2,25.0,-1.0,-1,1.0,3.8036000000001877
197,7,0.2,12.5,1.0,1,1.0,38.77830000000017
198,7,0.2,0.0,1.0,1,1.0,23.41910000000007
199,7,0.2,25.0,1.0,1,1.0,22.514500000000226
200,7,0.2,0.0,1.0,1,1.0,28.25350000000003
201,7,0.2,6.25,1.0,1,1.0,0.9807000000000698
202,7,0.2,100.0,-1.0,-1,1.0,3.043100000000095
203,7,0.2,12.5,1.0,1,1.0,3.8315000000000055
204,7,0.2,25.0,1.0,1,1.0,58.84880000000021
205,7,0.2,100.0,1.0,1,1.0,3.036200000000008
206,7,0.2,12.5,-1.0,1,0.0,19.47790000000009
207,7,0.2,100.0,1.0,1,1.0,2.2175000000002
209,7,0.2,100.0,1.0,1,1.0,8.285100000000057
210,7,0.8,100.0,-1.0,-1,1.0,37.891000000000076
211,7,0.8,25.0,-1.0,-1,1.0,0.6686000000001968
212,7,0.8,6.25,-1.0,1,0.0,44.1259
213,7,0.8,12.5,-1.0,1,0.0,24.651200000000017
214,7,0.8,25.0,-1.0,1,0.0,8.882300000000214
215,7,0.8,25.0,-1.0,1,0.0,32.4516000000001
217,7,0.8,6.25,-1.0,1,0.0,34.70140000000015
218,7,0.8,12.5,-1.0,1,0.0,21.74220000000014
219,7,0.8,6.25,1.0,1,1.0,25.784900000000107
220,7,0.8,12.5,-1.0,-1,1.0,0.453899999999976
221,7,0.8,25.0,-1.0,-1,1.0,0.5536000000001877
222,7,0.8,25.0,1.0,-1,0.0,0.9537000000002536
223,7,0.8,25.0,-1.0,-1,1.0,1.0850000000002638
224,7,0.8,100.0,-1.0,-1,1.0,0.38419999999996435
225,7,0.8,100.0,-1.0,-1,1.0,0.29980000000000473
226,7,0.8,100.0,-1.0,-1,1.0,0.43180100000017774
227,7,0.8,6.25,-1.0,1,0.0,12.291601000000128
228,7,0.8,0.0,1.0,1,1.0,40.139401000000134
229,7,0.8,6.25,-1.0,1,0.0,17.843200999999908
230,7,0.8,12.5,-1.0,1,0.0,21.02080100000012
231,7,0.8,100.0,1.0,1,1.0,0.6988010000002305
232,7,0.8,100.0,-1.0,1,0.0,38.25470100000007
233,7,0.8,6.25,-1.0,1,0.0,56.73780099999999
234,7,0.8,100.0,-1.0,1,0.0,9.02640099999985
235,7,0.2,100.0,1.0,1,1.0,0.4064009999999598
236,7,0.2,12.5,1.0,1,1.0,3.2246010000001206
237,7,0.2,6.25,1.0,1,1.0,0.29680100000018683
238,7,0.2,6.25,1.0,1,1.0,0.48600100000021484
239,7,0.2,6.25,-1.0,1,0.0,54.66910100000018
240,7,0.2,12.5,-1.0,1,0.0,25.264400999999907
241,7,0.2,100.0,-1.0,-1,1.0,21.915000999999847
242,7,0.2,0.0,1.0,1,1.0,1.670600999999806
243,7,0.2,100.0,1.0,1,1.0,0.36620099999981903
244,7,0.2,6.25,-1.0,1,0.0,45.929401000000325
245,7,0.2,6.25,-1.0,1,0.0,19.836800999999923
246,7,0.2,100.0,1.0,1,1.0,17.39020100000016
247,7,0.2,100.0,1.0,1,1.0,17.86010099999976
248,7,0.2,6.25,-1.0,1,0.0,32.18470100000013
249,7,0.2,25.0,1.0,1,1.0,13.586201000000074
250,7,0.2,12.5,-1.0,1,0.0,10.089900999999827
251,7,0.2,100.0,1.0,1,1.0,0.27590099999952145
252,7,0.2,25.0,1.0,1,1.0,1.0980009999998401
253,7,0.2,6.25,1.0,1,1.0,0.2880009999998947
254,7,0.2,12.5,1.0,1,1.0,1.016900999999507
255,7,0.2,25.0,1.0,1,1.0,0.5117009999999027
256,7,0.2,25.0,-1.0,1,0.0,7.674500999999964
257,7,0.2,12.5,1.0,1,1.0,12.97800099999995
258,7,0.2,12.5,1.0,1,1.0,57.78610099999969
259,7,0.2,12.5,-1.0,1,0.0,10.144001000000117
260,7,0.2,0.0,1.0,1,1.0,4.966701000000285
261,7,0.2,6.25,1.0,1,1.0,37.230301000000054
262,7,0.2,6.25,1.0,-1,0.0,0.1614009999998416
263,7,0.2,100.0,1.0,1,1.0,4.300200999999561
264,7,0.2,6.25,1.0,1,1.0,0.9752009999997426
265,7,0.2,100.0,1.0,1,1.0,0.45350099999950544
266,7,0.2,25.0,1.0,1,1.0,10.925900999999612
267,7,0.2,0.0,1.0,1,1.0,2.254801000000043
268,7,0.2,12.5,-1.0,1,0.0,2.64770099999987
269,7,0.2,25.0,1.0,1,1.0,28.05880100000013
270,7,0.2,25.0,1.0,1,1.0,0.14250099999981103
271,7,0.2,6.25,1.0,1,1.0,0.9850009999995564
272,7,0.2,6.25,1.0,1,1.0,45.14380100000017
273,7,0.2,12.5,1.0,1,1.0,31.19590100000005
274,7,0.2,100.0,-1.0,-1,1.0,12.046000999999706
275,7,0.2,25.0,1.0,1,1.0,0.627900999999838
276,7,0.2,12.5,1.0,1,1.0,28.294100999999955
277,7,0.2,100.0,-1.0,1,0.0,3.627401000000191
278,7,0.2,25.0,1.0,1,1.0,1.1120009999999638
279,7,0.2,6.25,1.0,1,1.0,27.883601
280,7,0.2,25.0,1.0,1,1.0,33.400701000000026
281,7,0.2,100.0,1.0,1,1.0,14.190200999999888
282,7,0.2,100.0,-1.0,1,0.0,51.9183009999997
283,7,0.2,100.0,1.0,1,1.0,0.7516009999994822
284,7,0.2,25.0,1.0,1,1.0,5.267100999999911
285,7,0.2,100.0,-1.0,-1,1.0,12.222200999999586
286,7,0.2,6.25,1.0,1,1.0,23.40940099999989
287,7,0.2,100.0,1.0,1,1.0,12.822301000000152
288,7,0.2,12.5,1.0,1,1.0,36.746500999999625
289,7,0.2,25.0,-1.0,-1,1.0,2.5952009999996335
290,7,0.2,0.0,1.0,1,1.0,23.50010099999963
291,7,0.2,12.5,1.0,1,1.0,2.171900999999707
292,7,0.2,6.25,1.0,1,1.0,4.854701000000205
1,8,0.5,6.25,1.0,1,1.0,1.4840999999999995
2,8,0.5,6.25,1.0,1,1.0,6.401700999999999
3,8,0.5,100.0,-1.0,-1,1.0,0.6023010000000024
4,8,0.5,6.25,-1.0,-1,1.0,0.2294009999999993
5,8,0.5,12.5,-1.0,-1,1.0,0.48410100000000256
6,8,0.5,6.25,-1.0,-1,1.0,0.6567010000000018
7,8,0.5,100.0,-1.0,-1,1.0,0.6075009999999992
8,8,0.5,12.5,1.0,1,1.0,0.343001000000001
9,8,0.5,25.0,1.0,1,1.0,0.5271009999999947
10,8,0.5,12.5,-1.0,-1,1.0,0.6614009999999979
11,8,0.5,25.0,-1.0,-1,1.0,0.3902010000000047
12,8,0.5,100.0,1.0,1,1.0,0.6898009999999957
13,8,0.5,12.5,1.0,-1,0.0,2.1582009999999983
14,8,0.5,25.0,1.0,1,1.0,0.30060100000000034
15,8,0.5,25.0,1.0,1,1.0,0.4796009999999953
16,8,0.5,25.0,-1.0,-1,1.0,0.4978010000000026
17,8,0.5,6.25,1.0,-1,0.0,0.8771010000000032
18,8,0.5,12.5,1.0,1,1.0,0.4562010000000001
19,8,0.5,25.0,-1.0,-1,1.0,0.3104010000000059
20,8,0.5,12.5,-1.0,-1,1.0,0.48940100000000086
21,8,0.5,25.0,-1.0,-1,1.0,0.43500099999999975
22,8,0.5,25.0,1.0,1,1.0,0.5987010000000055
23,8,0.5,12.5,1.0,1,1.0,1.2020009999999957
24,8,0.5,12.5,-1.0,-1,1.0,0.38120100000000434
25,8,0.5,100.0,-1.0,-1,1.0,0.3163009999999957
26,8,0.5,0.0,1.0,1,1.0,2.7425010000000043
27,8,0.5,25.0,-1.0,-1,1.0,0.4914009999999962
28,8,0.5,6.25,-1.0,1,0.0,9.914400999999998
29,8,0.5,25.0,-1.0,-1,1.0,1.0983010000000064
30,8,0.5,100.0,-1.0,-1,1.0,0.8226009999999917
31,8,0.5,25.0,1.0,1,1.0,0.5181010000000015
32,8,0.5,25.0,1.0,-1,0.0,4.641200999999995
33,8,0.5,25.0,1.0,1,1.0,0.2968009999999879
34,8,0.5,25.0,1.0,1,1.0,3.7121010000000183
35,8,0.5,12.5,1.0,1,1.0,1.0849010000000021
36,8,0.5,6.25,-1.0,-1,1.0,0.5660009999999716
37,8,0.5,100.0,-1.0,1,0.0,4.386900999999995
38,8,0.5,6.25,-1.0,1,0.0,5.910700999999989
39,8,0.5,6.25,1.0,1,1.0,0.8278009999999938
40,8,0.5,0.0,-1.0,1,0.0,1.2335009999999897
41,8,0.5,6.25,1.0,1,1.0,0.6844009999999798
42,8,0.5,25.0,1.0,1,1.0,0.3395009999999843
43,8,0.5,25.0,1.0,1,1.0,0.730800999999957
44,8,0.5,12.5,1.0,1,1.0,1.787600999999995
45,8,0.5,100.0,1.0,1,1.0,0.34970100000001025
46,8,0.5,100.0,-1.0,1,0.0,3.5361009999999737
47,8,0.5,100.0,1.0,1,1.0,0.3278009999999938
48,8,0.5,25.0,-1.0,1,0.0,0.2665009999999768
49,8,0.5,25.0,1.0,1,1.0,0.4142009999999914
50,8,0.5,0.0,1.0,1,1.0,1.6620010000000036
51,8,0.5,25.0,1.0,1,1.0,0.35620099999999866
52,8,0.5,0.0,-1.0,1,0.0,1.5874009999999998
53,8,0.5,25.0,-1.0,1,0.0,2.249600999999984
54,8,0.5,6.25,1.0,1,1.0,0.058400999999975056
55,8,0.5,6.25,1.0,1,1.0,0.4907010000000014
56,8,0.5,25.0,1.0,1,1.0,1.2339009999999746
57,8,0.5,100.0,1.0,1,1.0,0.32690099999999234
58,8,0.5,12.5,1.0,1,1.0,0.27100099999998406
59,8,0.5,12.5,1.0,1,1.0,0.34400099999999156
60,8,0.5,0.0,-1.0,1,0.0,3.2265009999999847
61,8,0.5,100.0,-1.0,-1,1.0,1.179901000000001
62,8,0.5,0.0,1.0,1,1.0,16.840701000000024
63,8,0.5,100.0,1.0,1,1.0,1.1152010000000132
64,8,0.5,0.0,1.0,-1,0.0,38.66390100000001
65,8,0.5,6.25,1.0,1,1.0,15.926001000000042
66,8,0.5,25.0,-1.0,-1,1.0,0.42870099999998956
67,8,0.5,12.5,1.0,1,1.0,7.5415009999999825
68,8,0.5,12.5,1.0,1,1.0,46.59820100000002
69,8,0.5,6.25,-1.0,-1,1.0,6.67650100000003
70,8,0.5,25.0,1.0,-1,0.0,2.796800000000019
71,8,0.5,25.0,1.0,1,1.0,1.1619010000000003
72,8,0.5,6.25,1.0,-1,0.0,11.750800999999967
73,8,0.5,6.25,1.0,1,1.0,0.6030010000000061
74,8,0.5,25.0,1.0,1,1.0,12.815000999999995
75,8,0.5,25.0,1.0,1,1.0,8.391701000000012
76,8,0.5,6.25,-1.0,-1,1.0,0.740901000000008
77,8,0.5,12.5,1.0,-1,0.0,2.18440099999998
78,8,0.5,25.0,-1.0,-1,1.0,0.5612010000000396
79,8,0.5,0.0,-1.0,-1,1.0,3.0109010000000467
80,8,0.5,100.0,1.0,1,1.0,0.5878010000000131
81,8,0.5,25.0,1.0,-1,0.0,4.857801000000052
82,8,0.5,12.5,-1.0,-1,1.0,1.0073010000000409
83,8,0.5,12.5,-1.0,-1,1.0,0.382300999999984
84,8,0.5,100.0,-1.0,-1,1.0,1.000300999999979
85,8,0.5,6.25,1.0,1,1.0,7.235300999999993
86,8,0.5,12.5,1.0,1,1.0,7.736401000000001
87,8,0.5,12.5,-1.0,-1,1.0,3.934800999999993
88,8,0.5,25.0,-1.0,-1,1.0,0.25500100000004977
89,8,0.5,25.0,-1.0,-1,1.0,2.826100999999994
90,8,0.5,0.0,-1.0,-1,1.0,3.4778009999999995
91,8,0.2,12.5,1.0,1,1.0,0.6895010000000639
92,8,0.2,12.5,1.0,-1,0.0,5.650000999999975
93,8,0.2,6.25,1.0,-1,0.0,3.0530009999999947
94,8,0.2,12.5,1.0,-1,0.0,4.9638009999999895
95,8,0.2,25.0,-1.0,-1,1.0,1.7256009999999833
96,8,0.2,6.25,1.0,-1,0.0,3.752601000000027
97,8,0.2,6.25,1.0,1,1.0,0.699901000000068
98,8,0.2,100.0,1.0,1,1.0,0.7155010000000175
99,8,0.2,100.0,1.0,1,1.0,0.5327009999999746
100,8,0.2,12.5,1.0,1,1.0,8.85380100000009
101,8,0.2,6.25,1.0,1,1.0,0.8927009999999882
102,8,0.2,12.5,1.0,1,1.0,0.46190100000012535
103,8,0.2,6.25,-1.0,1,0.0,35.032200999999986
104,8,0.2,25.0,1.0,1,1.0,5.279900999999995
105,8,0.2,6.25,1.0,1,1.0,0.36740099999997256
106,8,0.2,12.5,1.0,1,1.0,6.535400999999979
107,8,0.2,100.0,1.0,1,1.0,0.5396009999999478
108,8,0.2,25.0,1.0,1,1.0,0.31280100000003586
109,8,0.2,100.0,1.0,1,1.0,0.3204010000000608
110,8,0.2,6.25,1.0,1,1.0,18.38920100000007
111,8,0.2,6.25,1.0,1,1.0,2.6836009999999533
112,8,0.2,100.0,1.0,1,1.0,2.7040009999999484
113,8,0.2,12.5,1.0,1,1.0,0.8951010000000679
114,8,0.2,25.0,1.0,1,1.0,6.242000999999959
115,8,0.2,100.0,1.0,1,1.0,0.6471010000000206
116,8,0.2,100.0,1.0,1,1.0,4.6748009999998885
117,8,0.2,6.25,1.0,1,1.0,28.782601000000113
118,8,0.2,100.0,1.0,1,1.0,0.3746010000000979
119,8,0.2,25.0,1.0,1,1.0,0.324301000000105
120,8,0.2,100.0,1.0,1,1.0,14.557200999999964
121,8,0.2,6.25,1.0,1,1.0,19.06960099999992
122,8,0.2,0.0,1.0,1,1.0,1.624100999999996
123,8,0.2,6.25,1.0,1,1.0,18.048401000000013
124,8,0.2,6.25,1.0,1,1.0,20.92790100000002
125,8,0.2,6.25,1.0,1,1.0,0.7095010000000457
126,8,0.2,100.0,1.0,1,1.0,6.527200999999991
127,8,0.2,25.0,1.0,1,1.0,1.1116010000000642
128,8,0.2,6.25,1.0,1,1.0,7.490301000000045
129,8,0.2,12.5,1.0,1,1.0,1.0800010000000384
130,8,0.2,25.0,1.0,1,1.0,11.951801000000046
131,8,0.2,25.0,1.0,1,1.0,29.869801000000052
132,8,0.2,100.0,1.0,1,1.0,22.28400099999999
133,8,0.2,12.5,1.0,1,1.0,24.133701000000087
134,8,0.2,25.0,1.0,1,1.0,26.374100999999996
135,8,0.2,25.0,-1.0,1,0.0,30.133900999999923
136,8,0.2,0.0,1.0,1,1.0,26.006401000000096
137,8,0.2,100.0,1.0,1,1.0,0.9415010000000166
138,8,0.2,25.0,-1.0,1,0.0,38.34800099999984
139,8,0.2,100.0,1.0,1,1.0,13.064800999999761
140,8,0.2,6.25,1.0,1,1.0,29.456300999999712
141,8,0.2,0.0,1.0,1,1.0,4.396600999999691
142,8,0.2,100.0,1.0,1,1.0,11.184000999999853
143,8,0.2,0.0,1.0,1,1.0,6.220200999999861
145,8,0.2,100.0,1.0,1,1.0,38.61780099999987
146,8,0.2,100.0,1.0,1,1.0,13.708600999999817
147,8,0.2,25.0,1.0,1,1.0,50.270400999999765
148,8,0.2,0.0,1.0,1,1.0,0.8542010000001028
149,8,0.8,12.5,1.0,1,1.0,40.06290100000001
150,8,0.8,100.0,1.0,1,1.0,22.369500999999673
151,8,0.8,100.0,-1.0,1,0.0,41.2753009999999
152,8,0.8,6.25,-1.0,1,0.0,6.044900999999754
153,8,0.8,12.5,-1.0,1,0.0,1.5187009999997372
154,8,0.8,12.5,-1.0,1,0.0,5.314000999999962
155,8,0.8,0.0,-1.0,1,0.0,37.077702000000045
156,8,0.8,25.0,-1.0,1,0.0,30.98860099999979
157,8,0.8,6.25,-1.0,1,0.0,34.50140199999987
158,8,0.8,12.5,-1.0,1,0.0,16.643102
159,8,0.8,100.0,-1.0,1,0.0,16.303801999999905
160,8,0.8,6.25,-1.0,1,0.0,12.3477019999998
161,8,0.8,6.25,-1.0,1,0.0,28.86620199999993
162,8,0.8,25.0,1.0,1,1.0,6.562901999999667
163,8,0.8,25.0,1.0,1,1.0,23.00290199999995
164,8,0.8,25.0,-1.0,1,0.0,47.36160199999995
165,8,0.8,6.25,-1.0,1,0.0,26.739301999999952
166,8,0.8,100.0,-1.0,1,0.0,50.78350199999977
167,8,0.8,12.5,1.0,1,1.0,43.66680199999996
168,8,0.8,12.5,-1.0,-1,1.0,3.779301999999916
169,8,0.8,6.25,-1.0,-1,1.0,0.7609019999999873
170,8,0.8,25.0,-1.0,-1,1.0,0.21980199999984507
172,8,0.8,0.0,-1.0,1,0.0,35.88590199999999
173,8,0.8,0.0,-1.0,1,0.0,28.043801999999914
