trial_num,session_num,stim_probability_left,contrast,position,response_choice,trial_correct,reaction_time
1,1,0.5,100.0,-1.0,-1,1.0,1.0522999999999998
2,1,0.5,50.0,1.0,1,1.0,0.27600099999999994
3,1,0.5,50.0,1.0,-1,0.0,2.0941009999999984
4,1,0.8,50.0,-1.0,1,0.0,3.4079010000000025
5,1,0.8,50.0,1.0,1,1.0,1.6014000000000017
6,1,0.5,100.0,-1.0,-1,1.0,0.7330010000000016
7,1,0.5,100.0,1.0,1,1.0,2.3333009999999987
8,1,0.5,50.0,1.0,-1,0.0,1.0110009999999932
9,1,0.6,50.0,-1.0,1,0.0,3.6941009999999963
10,1,0.6,50.0,1.0,1,1.0,2.7001010000000036
11,1,0.5,100.0,1.0,-1,0.0,1.2918009999999924
12,1,0.6,100.0,-1.0,1,0.0,0.7934010000000029
13,1,0.6,100.0,-1.0,1,0.0,4.7970009999999945
14,1,0.7,100.0,1.0,1,1.0,1.075300999999996
15,1,0.5,50.0,-1.0,1,0.0,2.5687010000000043
16,1,0.7,50.0,-1.0,1,0.0,1.2912009999999867
17,1,0.8,50.0,-1.0,1,0.0,2.121900999999994
18,1,0.8,50.0,-1.0,1,0.0,0.6922009999999972
19,1,0.9,50.0,1.0,1,1.0,5.890101000000001
20,1,0.5,50.0,-1.0,-1,1.0,1.6097010000000012
21,1,0.5,100.0,-1.0,1,0.0,2.976101
22,1,0.9,100.0,1.0,1,1.0,0.39420099999999536
23,1,0.5,50.0,-1.0,1,0.0,5.426601000000005
24,1,0.9,50.0,1.0,1,1.0,0.24050099999996633
25,1,0.5,100.0,-1.0,-1,1.0,0.3728010000000097
26,1,0.5,50.0,-1.0,-1,1.0,2.574901000000011
27,1,0.5,100.0,-1.0,1,0.0,2.5657010000000184
28,1,0.7,100.0,-1.0,-1,1.0,3.410000999999994
29,1,0.5,50.0,-1.0,1,0.0,6.7748009999999965
30,1,0.6,50.0,-1.0,-1,1.0,3.4797010000000057
31,1,0.5,100.0,-1.0,-1,1.0,0.7820010000000082
32,1,0.5,100.0,1.0,1,1.0,4.5666009999999915
33,1,0.5,50.0,1.0,1,1.0,0.27260099999998033
34,1,0.5,100.0,-1.0,-1,1.0,8.24180100000001
35,1,0.5,50.0,1.0,1,1.0,0.2927009999999939
36,1,0.5,50.0,-1.0,-1,1.0,0.43970099999998524
37,1,0.5,50.0,-1.0,-1,1.0,1.766300000000001
38,1,0.5,50.0,1.0,-1,0.0,4.197700999999995
39,1,0.4,50.0,-1.0,1,0.0,0.27960099999998533
40,1,0.4,50.0,-1.0,1,0.0,0.340800999999999
41,1,0.5,50.0,1.0,1,1.0,0.2778009999999824
42,1,0.5,100.0,1.0,-1,0.0,2.685900999999973
43,1,0.5,100.0,-1.0,-1,1.0,3.1546009999999853
44,1,0.5,100.0,-1.0,1,0.0,3.635801000000015
45,1,0.5,100.0,-1.0,1,0.0,6.020201000000043
46,1,0.5,100.0,-1.0,1,0.0,0.3523010000000113
47,1,0.6,100.0,-1.0,1,0.0,4.00060000000002
48,1,0.7,100.0,-1.0,1,0.0,8.33170100000001
49,1,0.8,100.0,1.0,-1,0.0,9.235901000000013
50,1,0.7,100.0,-1.0,1,0.0,0.23850100000004204
51,1,0.7,100.0,1.0,1,1.0,5.875701000000049
52,1,0.5,100.0,-1.0,1,0.0,4.516001000000074
53,1,0.8,100.0,-1.0,1,0.0,0.7528010000000336
54,1,0.9,100.0,1.0,1,1.0,0.3386010000000397
55,1,0.5,100.0,-1.0,1,0.0,1.7611000000000558
56,1,0.9,100.0,1.0,-1,0.0,3.3053010000000427
57,1,0.8,100.0,-1.0,1,0.0,0.788900999999953
58,1,0.8,100.0,-1.0,-1,1.0,0.9970010000000116
59,1,0.5,50.0,-1.0,-1,1.0,
60,1,0.5,50.0,1.0,-1,0.0,0.938801000000069
61,1,0.6,50.0,1.0,1,1.0,0.25450100000000475
62,1,0.5,50.0,1.0,-1,0.0,2.7492010000000278
63,1,0.5,50.0,1.0,1,1.0,4.704901000000007
64,1,0.5,50.0,-1.0,1,0.0,0.39740100000005896
65,1,0.5,50.0,1.0,-1,0.0,0.6908010000000218
66,1,0.4,50.0,1.0,-1,0.0,0.7908010000000445
67,1,0.4,50.0,-1.0,1,0.0,7.821800999999994
68,1,0.4,50.0,1.0,-1,0.0,0.7040010000000052
69,1,0.4,50.0,-1.0,1,0.0,0.575601000000006
70,1,0.5,50.0,-1.0,1,0.0,0.3834009999999921
71,1,0.6,50.0,-1.0,-1,1.0,3.6201010000000338
72,1,0.5,100.0,-1.0,-1,1.0,1.3219010000000253
73,1,0.5,50.0,1.0,-1,0.0,0.9129010000000335
74,1,0.4,50.0,1.0,-1,0.0,0.9204010000000267
75,1,0.3,50.0,1.0,-1,0.0,0.508401000000049
76,1,0.3,50.0,1.0,1,1.0,0.2650010000000407
77,1,0.5,100.0,1.0,1,1.0,1.4969010000000367
78,1,0.5,50.0,-1.0,1,0.0,5.068200999999988
79,1,0.5,50.0,-1.0,1,0.0,0.27370100000001685
80,1,0.5,50.0,1.0,1,1.0,0.34370100000001
81,1,0.5,50.0,-1.0,-1,1.0,1.484501000000023
82,1,0.5,50.0,-1.0,1,0.0,2.5822000000000003
83,1,0.6,50.0,1.0,1,1.0,0.24750099999999975
84,1,0.5,100.0,1.0,1,1.0,4.868600000000072
85,1,0.5,50.0,-1.0,1,0.0,0.6319010000000844
86,1,0.9,50.0,-1.0,-1,1.0,1.0173000000000911
87,1,0.5,100.0,-1.0,1,0.0,4.460001000000034
88,1,0.8,100.0,-1.0,1,0.0,0.2549010000001317
89,1,0.8,100.0,-1.0,1,0.0,0.23680100000012771
90,1,0.8,100.0,-1.0,1,0.0,0.2833010000000513
91,1,0.8,100.0,-1.0,-1,1.0,15.353001000000063
92,1,0.5,50.0,-1.0,1,0.0,0.3523010000000113
93,1,0.8,50.0,-1.0,-1,1.0,1.0250009999999747
94,1,0.5,50.0,-1.0,-1,1.0,2.8111010000001215
95,1,0.5,100.0,1.0,-1,0.0,7.285101000000054
96,1,0.5,100.0,-1.0,-1,1.0,0.637501000000043
97,1,0.5,50.0,-1.0,1,0.0,2.4918010000000095
98,1,0.5,50.0,-1.0,-1,1.0,1.226301000000035
99,1,0.5,50.0,1.0,-1,0.0,1.5557009999999991
100,1,0.3,50.0,1.0,-1,0.0,0.7465010000000802
101,1,0.2,50.0,1.0,-1,0.0,8.947501000000102
102,1,0.2,50.0,1.0,1,1.0,0.22340100000008078
103,1,0.5,100.0,-1.0,-1,1.0,1.0231010000001106
104,1,0.5,100.0,-1.0,-1,1.0,0.40990100000010443
105,1,0.5,100.0,-1.0,-1,1.0,1.9532009999999218
106,1,0.5,50.0,-1.0,1,0.0,0.23210099999994327
107,1,0.3,50.0,1.0,-1,0.0,0.5508010000000922
108,1,0.2,50.0,-1.0,1,0.0,0.25860099999999875
109,1,0.3,50.0,-1.0,1,0.0,0.4607009999999718
110,1,0.4,50.0,1.0,1,1.0,4.7319009999999935
111,1,0.5,50.0,1.0,-1,0.0,3.131101000000058
112,1,0.5,50.0,1.0,-1,0.0,0.8911010000000488
113,1,0.4,50.0,1.0,-1,0.0,1.1404009999999971
114,1,0.4,50.0,-1.0,1,0.0,9.397199999999998
115,1,0.5,50.0,1.0,1,1.0,0.24710099999992963
116,1,0.5,50.0,1.0,-1,0.0,0.7049010000000635
117,1,0.5,50.0,-1.0,1,0.0,5.142101000000025
118,1,0.6,50.0,-1.0,1,0.0,1.3299010000000635
119,1,0.6,50.0,-1.0,1,0.0,1.230401000000029
120,1,0.6,50.0,1.0,-1,0.0,5.808201000000167
121,1,0.5,50.0,1.0,-1,0.0,0.3398010000000795
122,1,0.5,50.0,1.0,1,1.0,0.26050099999997656
123,1,0.5,100.0,-1.0,1,0.0,2.461601000000087
124,1,0.7,100.0,1.0,-1,0.0,0.6851010000000315
125,1,0.6,100.0,-1.0,1,0.0,14.97640100000001
126,1,0.6,100.0,-1.0,1,0.0,0.24700099999995473
127,1,0.7,100.0,-1.0,1,0.0,3.115801000000033
128,1,0.7,100.0,-1.0,1,0.0,0.2274009999999862
129,1,0.7,100.0,1.0,1,1.0,0.2170010000000957
130,1,0.5,100.0,-1.0,1,0.0,0.7589009999999234
131,1,0.8,100.0,-1.0,1,0.0,0.2353010000000495
132,1,0.9,100.0,-1.0,1,0.0,0.2073010000000295
133,1,0.9,100.0,-1.0,-1,1.0,1.0447010000001455
134,1,0.5,50.0,-1.0,1,0.0,3.416300999999976
135,1,0.9,50.0,-1.0,1,0.0,0.9232010000000628
136,1,0.9,50.0,-1.0,-1,1.0,5.542300999999952
137,1,0.5,50.0,-1.0,-1,1.0,1.5671009999999796
138,1,0.5,100.0,1.0,-1,0.0,2.7704010000001063
139,1,0.6,100.0,-1.0,-1,1.0,0.8889010000000326
140,1,0.5,50.0,1.0,-1,0.0,0.6823010000000522
141,1,0.4,50.0,-1.0,-1,1.0,0.8859009999999898
142,1,0.5,50.0,-1.0,-1,1.0,1.530601000000047
143,1,0.5,100.0,-1.0,-1,1.0,1.1525009999999156
144,1,0.5,50.0,-1.0,1,0.0,6.440400999999952
145,1,0.2,50.0,1.0,1,1.0,0.25680099999999584
146,1,0.5,50.0,1.0,1,1.0,2.5370009999999183
147,1,0.5,50.0,1.0,-1,0.0,4.450401000000056
148,1,0.3,50.0,-1.0,1,0.0,0.28290099999992435
149,1,0.4,50.0,1.0,-1,0.0,0.6382009999999809
150,1,0.4,50.0,-1.0,1,0.0,2.8154010000000653
151,1,0.5,50.0,-1.0,-1,1.0,0.1345010000000002
152,1,0.5,100.0,1.0,1,1.0,0.2534010000000535
153,1,0.5,100.0,1.0,1,1.0,0.3476010000000542
154,1,0.5,100.0,1.0,-1,0.0,4.440601000000015
155,1,0.6,100.0,-1.0,-1,1.0,9.654501000000096
156,1,0.5,100.0,-1.0,1,0.0,10.566500999999903
157,1,0.5,100.0,1.0,1,1.0,0.2796010000000706
158,1,0.5,100.0,1.0,1,1.0,0.25050100000009934
159,1,0.5,50.0,1.0,1,1.0,3.687201000000073
160,1,0.5,50.0,-1.0,1,0.0,0.4971010000000433
161,1,0.7,50.0,-1.0,1,0.0,5.220501000000013
162,1,0.8,50.0,1.0,1,1.0,5.384100999999873
163,1,0.5,50.0,-1.0,1,0.0,17.04360100000008
164,1,0.8,50.0,-1.0,1,0.0,5.214701000000105
165,1,0.9,50.0,-1.0,1,0.0,15.914101000000073
166,1,1.0,50.0,1.0,1,1.0,9.598700999999892
167,1,0.5,100.0,-1.0,1,0.0,3.9591009999999187
168,1,1.0,100.0,-1.0,1,0.0,0.2722009999999955
169,1,1.0,100.0,-1.0,1,0.0,0.21870100000001003
170,1,1.0,100.0,-1.0,1,0.0,0.23900099999991653
171,1,1.0,100.0,-1.0,1,0.0,0.19200099999989106
172,1,1.0,100.0,-1.0,1,0.0,0.20580099999983759
173,1,1.0,100.0,-1.0,1,0.0,0.21910099999990962
174,1,1.0,100.0,-1.0,1,0.0,0.246000999999751
175,1,1.0,100.0,-1.0,1,0.0,0.2057009999998627
176,1,1.0,100.0,-1.0,1,0.0,0.2195009999998092
177,1,1.0,100.0,-1.0,1,0.0,0.21570100000008097
178,1,1.0,100.0,-1.0,1,0.0,0.21630099999993035
179,1,1.0,100.0,-1.0,1,0.0,0.22000099999991107
180,1,1.0,100.0,-1.0,1,0.0,0.2599009999996724
181,1,1.0,100.0,-1.0,1,0.0,0.21970099999998638
182,1,1.0,100.0,-1.0,1,0.0,0.2133010000000013
183,1,1.0,100.0,-1.0,1,0.0,0.21390099999985068
184,1,1.0,100.0,-1.0,1,0.0,2.366800999999896
185,1,1.0,100.0,-1.0,-1,1.0,0.5304009999997561
186,1,0.5,100.0,-1.0,1,0.0,0.26680099999998674
187,1,0.9,100.0,1.0,1,1.0,0.24670100000003004
188,1,0.5,50.0,-1.0,1,0.0,0.29710099999988415
189,1,0.9,50.0,-1.0,-1,1.0,5.694201000000021
190,1,0.5,100.0,-1.0,1,0.0,0.2073009999999158
191,1,0.8,100.0,1.0,-1,0.0,0.5340009999999893
192,1,0.7,100.0,1.0,-1,0.0,5.524100999999973
193,1,0.6,100.0,-1.0,-1,1.0,7.713500999999951
194,1,0.5,50.0,-1.0,1,0.0,0.21110099999987142
195,1,0.5,50.0,-1.0,1,0.0,1.134600999999975
196,1,0.6,50.0,1.0,1,1.0,0.23790099999996528
197,1,0.5,100.0,-1.0,-1,1.0,1.307600999999977
198,1,0.5,50.0,1.0,1,1.0,0.30150099999968916
199,1,0.5,100.0,-1.0,1,0.0,0.2410010000000966
200,1,0.6,100.0,-1.0,-1,1.0,0.21830099999988306
201,1,0.5,100.0,-1.0,1,0.0,3.0684009999999944
202,1,0.6,100.0,-1.0,-1,1.0,0.6417010000000118
203,1,0.5,50.0,1.0,1,1.0,0.2614010000002054
204,1,0.5,50.0,1.0,1,1.0,0.25520099999971535
205,1,0.5,100.0,-1.0,-1,1.0,0.6849010000000817
206,1,0.5,50.0,-1.0,-1,1.0,0.9320009999999002
207,1,0.5,50.0,-1.0,1,0.0,0.20890099999996892
208,1,0.6,50.0,1.0,1,1.0,0.19220099999984086
209,1,0.5,50.0,-1.0,-1,1.0,0.662000999999691
210,1,0.5,100.0,-1.0,1,0.0,0.2457009999998263
211,1,0.6,100.0,1.0,1,1.0,0.20900099999994382
212,1,0.5,50.0,-1.0,1,0.0,0.4591009999999187
213,1,0.7,50.0,1.0,-1,0.0,1.809701000000132
214,1,0.6,50.0,1.0,1,1.0,0.29280100000005405
215,1,0.5,100.0,1.0,1,1.0,2.3690009999997983
216,1,0.5,100.0,1.0,1,1.0,0.20289999999977226
217,1,0.5,100.0,-1.0,1,0.0,0.23380100000008497
218,1,0.8,100.0,-1.0,1,0.0,0.18970100000001366
219,1,0.8,100.0,-1.0,1,0.0,0.3126009999998587
220,1,0.9,100.0,1.0,1,1.0,0.30650100000002567
221,1,0.5,50.0,-1.0,1,0.0,0.276100999999926
222,1,0.9,50.0,-1.0,1,0.0,0.193400999999767
223,1,0.9,50.0,-1.0,1,0.0,0.21700099999975464
224,1,1.0,50.0,-1.0,1,0.0,0.22030099999983577
225,1,1.0,50.0,1.0,1,1.0,1.8811009999999442
226,1,0.5,50.0,-1.0,1,0.0,4.973700999999664
227,1,1.0,50.0,-1.0,1,0.0,0.21460099999990234
228,1,1.0,50.0,-1.0,-1,1.0,4.377300999999989
229,1,0.5,100.0,-1.0,1,0.0,0.4034009999998034
230,1,0.9,100.0,1.0,1,1.0,0.2276009999998223
231,1,0.5,100.0,-1.0,1,0.0,1.2511010000000624
232,1,0.9,100.0,-1.0,1,0.0,4.534400999999889
233,1,0.9,100.0,-1.0,1,0.0,0.1912009999998645
234,1,0.9,100.0,1.0,-1,0.0,9.161300999999867
235,1,0.8,100.0,1.0,1,1.0,0.7913009999997485
236,1,0.5,50.0,-1.0,1,0.0,0.22159999999985303
237,1,0.8,50.0,-1.0,1,0.0,0.22879999999986467
238,1,0.8,50.0,-1.0,1,0.0,0.10510099999987688
239,1,0.9,50.0,-1.0,1,0.0,0.20810099999994236
240,1,0.9,50.0,-1.0,1,0.0,1.7086010000000442
241,1,0.9,50.0,-1.0,1,0.0,0.21480099999985214
242,1,0.9,50.0,-1.0,1,0.0,0.1455009999997401
243,1,0.9,50.0,-1.0,1,0.0,0.20240100000000893
244,1,0.9,50.0,-1.0,1,0.0,0.30900099999985287
245,1,1.0,50.0,-1.0,1,0.0,0.18630099999995764
246,1,1.0,50.0,-1.0,1,0.0,0.2357009999998354
247,1,1.0,50.0,-1.0,1,0.0,0.24610099999995327
248,1,1.0,50.0,-1.0,1,0.0,0.22590100000002167
249,1,1.0,50.0,-1.0,1,0.0,1.1729009999999107
250,1,1.0,50.0,-1.0,1,0.0,0.20610099999976228
251,1,1.0,50.0,-1.0,1,0.0,0.21930099999985941
252,1,1.0,50.0,-1.0,-1,1.0,4.943001000000095
253,1,0.5,50.0,-1.0,1,0.0,0.21930099999985941
254,1,0.9,50.0,-1.0,1,0.0,0.2331010000000333
255,1,0.9,50.0,-1.0,1,0.0,0.2233009999999922
256,1,0.9,50.0,-1.0,1,0.0,0.249800999999934
257,1,0.9,50.0,-1.0,1,0.0,0.2137009999996735
258,1,0.9,50.0,-1.0,-1,1.0,0.9834009999997306
259,1,0.5,100.0,-1.0,1,0.0,0.21950100000003658
260,1,0.8,100.0,-1.0,1,0.0,0.24680099999977756
261,1,0.8,100.0,-1.0,1,0.0,0.1971009999999751
262,1,0.8,100.0,1.0,1,1.0,0.1837009999997008
263,1,0.5,50.0,-1.0,1,0.0,0.22070099999996273
264,1,0.9,50.0,-1.0,1,0.0,0.21380099999987578
265,1,0.9,50.0,-1.0,1,0.0,0.23760100000004059
266,1,0.9,50.0,-1.0,1,0.0,0.21070099999974445
267,1,0.9,50.0,-1.0,1,0.0,5.783901000000014
268,1,0.9,50.0,-1.0,1,0.0,0.2377009999997881
269,1,1.0,50.0,1.0,1,1.0,0.24760099999980412
270,1,0.5,50.0,-1.0,1,0.0,0.3511009999997441
271,1,1.0,50.0,-1.0,1,0.0,0.20150100000000748
272,1,1.0,50.0,-1.0,-1,1.0,0.527800999999954
273,1,0.5,100.0,-1.0,-1,1.0,0.43790000000012697
274,1,0.5,100.0,1.0,1,1.0,0.20800099999996746
275,1,0.5,100.0,1.0,-1,0.0,0.48850099999981467
276,1,0.7,100.0,-1.0,1,0.0,9.711600999999973
277,1,0.7,100.0,-1.0,1,0.0,1.1915010000000166
278,1,0.7,100.0,-1.0,1,0.0,0.3186009999999442
279,1,0.7,100.0,-1.0,1,0.0,6.084700999999768
280,1,0.7,100.0,-1.0,1,0.0,4.425500999999713
281,1,0.7,100.0,-1.0,-1,1.0,1.3052009999998972
282,1,0.5,100.0,-1.0,1,0.0,1.8324009999998907
283,1,0.7,100.0,-1.0,1,0.0,0.22880099999997583
284,1,0.8,100.0,1.0,1,1.0,0.3360009999998965
285,1,0.5,100.0,-1.0,1,0.0,3.5657009999997626
286,1,0.9,100.0,-1.0,-1,1.0,0.7595010000000002
287,1,0.5,100.0,-1.0,1,0.0,6.2735009999998965
288,1,0.8,100.0,-1.0,1,0.0,5.336600999999973
289,1,0.8,100.0,1.0,1,1.0,0.23020099999985177
290,1,0.5,100.0,1.0,1,1.0,0.22660099999984595
291,1,0.5,50.0,-1.0,1,0.0,4.819700999999895
292,1,0.9,50.0,1.0,1,1.0,5.927001000000018
293,1,0.5,100.0,-1.0,1,0.0,0.22070099999973536
294,1,0.9,100.0,-1.0,1,0.0,3.920701000000008
295,1,0.9,100.0,-1.0,1,0.0,7.79420099999993
296,1,0.9,100.0,-1.0,1,0.0,5.590900999999803
297,1,1.0,100.0,-1.0,1,0.0,4.490800999999919
298,1,1.0,100.0,-1.0,1,0.0,5.041200999999774
299,1,1.0,100.0,-1.0,1,0.0,0.317801000000145
300,1,1.0,100.0,-1.0,1,0.0,8.951501000000007
301,1,1.0,100.0,-1.0,-1,1.0,0.5482009999998354
302,1,0.5,50.0,-1.0,1,0.0,3.8018009999998412
303,1,0.9,50.0,1.0,1,1.0,0.2529010000000653
304,1,0.5,50.0,-1.0,1,0.0,0.3788010000000668
305,1,0.9,50.0,-1.0,1,0.0,0.24500100000000202
306,1,0.9,50.0,-1.0,-1,1.0,0.6154009999997925
307,1,0.5,100.0,-1.0,-1,1.0,1.1053999999999178
308,1,0.5,100.0,-1.0,1,0.0,4.952201000000059
309,1,0.7,100.0,1.0,1,1.0,0.31900099999984377
310,1,0.5,50.0,-1.0,1,0.0,4.635900999999876
311,1,0.7,50.0,1.0,1,1.0,4.313800999999785
312,1,0.5,100.0,-1.0,1,0.0,0.2695009999999911
313,1,0.8,100.0,-1.0,1,0.0,0.2068010000000413
314,1,0.8,100.0,-1.0,1,0.0,0.2230010000000675
315,1,0.8,100.0,-1.0,1,0.0,10.106000999999878
316,1,0.8,100.0,-1.0,1,0.0,2.596700999999939
317,1,0.9,100.0,-1.0,1,0.0,0.42070099999978083
318,1,1.0,100.0,-1.0,1,0.0,6.38030099999969
319,1,1.0,100.0,-1.0,-1,1.0,0.36400099999991653
320,1,0.5,100.0,-1.0,1,0.0,18.07390099999975
321,1,0.9,100.0,-1.0,-1,1.0,10.628400999999712
322,1,0.5,100.0,-1.0,-1,1.0,4.851200999999719
323,1,0.5,50.0,-1.0,1,0.0,0.26510099999995873
324,1,0.7,50.0,1.0,-1,0.0,6.098100999999815
325,1,0.6,50.0,1.0,1,1.0,0.31140099999993254
326,1,0.5,100.0,-1.0,1,0.0,4.1782009999999445
327,1,0.6,100.0,-1.0,1,0.0,3.511799999999994
328,1,0.6,100.0,1.0,1,1.0,7.002001000000064
329,1,0.5,100.0,1.0,1,1.0,3.618801000000076
330,1,0.5,100.0,-1.0,1,0.0,17.795600000000377
331,1,0.7,100.0,1.0,1,1.0,7.042601000000104
332,1,0.5,50.0,1.0,-1,0.0,4.286101000000144
333,1,0.8,50.0,-1.0,1,0.0,0.3096009999999296
334,1,0.8,50.0,-1.0,1,0.0,0.2330010000000584
335,1,0.9,50.0,-1.0,1,0.0,0.40970100000004095
336,1,0.9,50.0,-1.0,1,0.0,3.7533009999997375
337,1,0.9,50.0,-1.0,-1,1.0,11.36730099999977
338,1,0.5,50.0,1.0,1,1.0,0.25690099999974336
339,1,0.5,50.0,1.0,-1,0.0,0.9507009999997535
340,1,0.7,50.0,-1.0,1,0.0,0.713800999999421
341,1,0.7,50.0,-1.0,1,0.0,0.3006009999999151
342,1,0.7,50.0,1.0,1,1.0,0.29740099999980885
343,1,0.5,50.0,1.0,1,1.0,3.4975009999993745
344,1,0.5,50.0,1.0,1,1.0,6.097500999999738
345,1,0.5,50.0,-1.0,-1,1.0,0.7713010000002214
346,1,0.5,100.0,1.0,1,1.0,0.28770099999974263
347,1,0.5,100.0,1.0,1,1.0,0.15190099999972517
348,1,0.5,100.0,1.0,1,1.0,7.477800999999545
349,1,0.5,100.0,1.0,1,1.0,0.2556009999998423
350,1,0.5,50.0,-1.0,1,0.0,4.274700999999823
351,1,0.9,50.0,-1.0,1,0.0,4.851500999999644
352,1,0.9,50.0,-1.0,1,0.0,4.498500999999578
353,1,0.9,50.0,-1.0,-1,1.0,0.658600999999635
354,1,0.5,50.0,-1.0,1,0.0,6.842000999999982
355,1,0.8,50.0,-1.0,-1,1.0,0.9621999999999389
356,1,0.5,100.0,-1.0,1,0.0,0.26220100000000457
357,1,0.8,100.0,-1.0,-1,1.0,6.789000999999644
358,1,0.5,100.0,1.0,-1,0.0,0.4525010000002112
359,1,0.6,100.0,-1.0,1,0.0,0.18970100000024104
360,1,0.6,100.0,1.0,1,1.0,0.7226009999999405
361,1,0.5,100.0,-1.0,-1,1.0,3.8366009999995185
362,1,0.5,50.0,1.0,-1,0.0,5.032800999999836
363,1,0.4,50.0,1.0,-1,0.0,0.5606010000001334
364,1,0.4,50.0,1.0,1,1.0,0.22980099999949744
365,1,0.5,100.0,-1.0,1,0.0,6.337699999999586
366,1,0.5,100.0,-1.0,-1,1.0,0.5067009999997936
367,1,0.5,50.0,-1.0,1,0.0,0.3117010000000846
368,1,0.5,50.0,-1.0,1,0.0,1.6435010000000148
369,1,0.6,50.0,-1.0,-1,1.0,5.926900999999816
370,1,0.5,50.0,1.0,-1,0.0,9.540400999999747
371,1,0.4,50.0,-1.0,1,0.0,0.42770100000007005
372,1,0.5,50.0,-1.0,1,0.0,7.1708010000002105
373,1,0.6,50.0,-1.0,1,0.0,0.24480099999982485
374,1,0.7,50.0,1.0,-1,0.0,4.781000999999833
375,1,0.6,50.0,-1.0,1,0.0,8.081101000000217
376,1,0.6,50.0,-1.0,1,0.0,0.2182009999996808
377,1,0.7,50.0,-1.0,1,0.0,0.2887009999994916
378,1,0.7,50.0,-1.0,1,0.0,0.2251009999999951
379,1,0.7,50.0,1.0,-1,0.0,3.299000999999862
380,1,0.7,50.0,1.0,-1,0.0,6.848700999999892
381,1,0.7,50.0,-1.0,1,0.0,0.23890099999971426
382,1,0.7,50.0,1.0,1,1.0,2.7090009999997164
383,1,0.5,50.0,-1.0,-1,1.0,6.779500999999982
384,1,0.5,50.0,-1.0,1,0.0,0.21600100000023303
385,1,0.7,50.0,-1.0,-1,1.0,8.790000999999847
386,1,0.5,100.0,1.0,-1,0.0,1.6396009999998569
387,1,0.5,100.0,-1.0,1,0.0,0.20030099999985396
388,1,0.5,100.0,-1.0,1,0.0,14.03650099999959
389,1,0.5,100.0,1.0,1,1.0,0.7381009999999151
390,1,0.5,50.0,-1.0,1,0.0,8.310200999999779
391,1,0.7,50.0,-1.0,1,0.0,9.040301
392,1,0.7,50.0,-1.0,1,0.0,0.20420100000001185
393,1,0.7,50.0,1.0,1,1.0,0.2075009999998656
394,1,0.5,100.0,1.0,-1,0.0,2.7009009999997033
395,1,0.7,100.0,-1.0,1,0.0,2.0312010000002374
396,1,0.8,100.0,1.0,1,1.0,0.21450099999992744
397,1,0.5,50.0,-1.0,1,0.0,0.22890099999995073
398,1,0.9,50.0,-1.0,1,0.0,0.2680009999999129
399,1,0.9,50.0,-1.0,-1,1.0,1.409200999999939
400,1,0.5,50.0,-1.0,1,0.0,0.21470099999987724
401,1,0.8,50.0,-1.0,-1,1.0,11.998300999999628
402,1,0.5,50.0,-1.0,1,0.0,0.21190100000012535
403,1,0.7,50.0,-1.0,-1,1.0,0.7523009999999886
404,1,0.5,50.0,-1.0,1,0.0,12.792001000000255
405,1,0.7,50.0,-1.0,1,0.0,11.86600099999987
406,1,0.7,50.0,-1.0,1,0.0,9.89270099999976
407,1,0.7,50.0,-1.0,1,0.0,8.966701000000285
408,1,0.7,50.0,-1.0,1,0.0,0.15990099999999074
409,1,0.7,50.0,-1.0,1,0.0,0.23720099999945887
410,1,0.8,50.0,-1.0,-1,1.0,14.893501000000015
411,1,0.5,50.0,1.0,1,1.0,0.19050099999958547
412,1,0.5,50.0,1.0,-1,0.0,0.5405009999999493
413,1,0.7,50.0,1.0,1,1.0,0.23790099999996528
414,1,0.5,50.0,-1.0,1,0.0,0.22070099999973536
415,1,0.8,50.0,1.0,-1,0.0,4.140500999999858
416,1,0.7,50.0,-1.0,1,0.0,0.2308010000001559
417,1,0.7,50.0,1.0,1,1.0,0.1915009999997892
418,1,0.5,50.0,-1.0,1,0.0,0.2178009999997812
419,1,0.7,50.0,-1.0,1,0.0,9.30460099999982
420,1,0.7,50.0,-1.0,1,0.0,5.404801000000134
421,1,0.8,50.0,-1.0,1,0.0,0.2356009999998605
422,1,0.8,50.0,-1.0,1,0.0,1.9884010000000671
423,1,0.9,50.0,-1.0,1,0.0,2.6259009999998852
424,1,0.9,50.0,-1.0,-1,1.0,4.498501000000033
425,1,0.5,50.0,-1.0,-1,1.0,4.762299999999868
426,1,0.5,100.0,1.0,-1,0.0,3.422200999999859
427,1,0.7,100.0,-1.0,1,0.0,0.2158009999998285
428,1,0.7,100.0,-1.0,-1,1.0,14.949000999999953
429,1,0.5,50.0,-1.0,-1,1.0,9.55980099999988
430,1,0.5,50.0,-1.0,1,0.0,0.343000999999731
431,1,0.5,50.0,1.0,1,1.0,1.156901000000289
432,1,0.5,50.0,-1.0,1,0.0,0.25640100000009625
433,1,0.5,50.0,-1.0,-1,1.0,1.4762009999994916
434,1,0.5,100.0,1.0,1,1.0,0.7732009999999718
435,1,0.5,50.0,1.0,1,1.0,3.496200999999928
436,1,0.5,50.0,1.0,-1,0.0,3.3333010000001195
437,1,0.6,50.0,-1.0,1,0.0,8.093900999999732
438,1,0.6,50.0,1.0,-1,0.0,0.5172010000001137
439,1,0.6,50.0,1.0,1,1.0,0.24690100000043458
440,1,0.5,100.0,1.0,1,1.0,0.2472010000001319
441,1,0.5,100.0,-1.0,1,0.0,0.2939010000000053
442,1,0.7,100.0,-1.0,1,0.0,0.2240009999995891
443,1,0.7,100.0,1.0,1,1.0,0.2546009999996386
444,1,0.5,50.0,-1.0,1,0.0,0.1909009999999398
445,1,0.8,50.0,-1.0,-1,1.0,9.47400099999959
446,1,0.5,50.0,-1.0,1,0.0,6.09130099999993
447,1,0.8,50.0,-1.0,1,0.0,9.17830099999992
448,1,0.8,50.0,-1.0,1,0.0,13.79830099999981
449,1,0.9,50.0,-1.0,1,0.0,2.0161009999997077
450,1,0.9,50.0,-1.0,1,0.0,6.212200999999823
451,1,0.9,50.0,1.0,1,1.0,4.732101000000057
452,1,0.5,50.0,-1.0,1,0.0,0.41920100000015736
453,1,0.9,50.0,-1.0,-1,1.0,9.185801000000083
454,1,0.5,100.0,-1.0,1,0.0,4.142700999999761
455,1,0.8,100.0,-1.0,1,0.0,12.372700999999779
456,1,0.9,100.0,-1.0,1,0.0,5.186501000000135
457,1,0.9,100.0,1.0,1,1.0,0.4932020000001103
458,1,0.5,50.0,-1.0,-1,1.0,10.37010199999986
459,1,0.5,100.0,1.0,1,1.0,4.434302000000116
460,1,0.5,50.0,1.0,1,1.0,8.24380199999996
461,1,0.5,50.0,-1.0,1,0.0,0.4243019999998978
462,1,0.8,50.0,-1.0,1,0.0,0.25400200000012774
463,1,0.8,50.0,-1.0,-1,1.0,0.5209019999997508
464,1,0.5,50.0,-1.0,1,0.0,6.461101999999755
465,1,0.8,50.0,-1.0,1,0.0,14.840701999999965
466,1,0.8,50.0,1.0,-1,0.0,7.371501999999509
467,1,0.7,50.0,1.0,1,1.0,8.192201999999725
468,1,0.5,100.0,-1.0,1,0.0,1.5286019999994096
469,1,0.8,100.0,1.0,-1,0.0,10.868801999999505
470,1,0.7,100.0,1.0,1,1.0,6.139101999999639
471,1,0.5,100.0,1.0,1,1.0,13.146601999999803
472,1,0.5,100.0,-1.0,-1,1.0,4.539601999999832
473,1,0.5,100.0,1.0,1,1.0,0.22680199999967954
474,1,0.5,100.0,-1.0,1,0.0,0.26980100000037055
475,1,0.7,100.0,-1.0,1,0.0,7.426801999999952
476,1,0.7,100.0,-1.0,1,0.0,6.393301999999949
477,1,0.8,100.0,-1.0,-1,1.0,3.550401999999849
478,1,0.5,100.0,-1.0,-1,1.0,0.8103020000003198
479,1,0.5,100.0,-1.0,1,0.0,3.057702000000063
480,1,0.7,100.0,-1.0,-1,1.0,8.96070200000031
481,1,0.5,100.0,-1.0,1,0.0,9.388002000000142
482,1,0.6,100.0,1.0,1,1.0,8.304401999999754
483,1,0.5,50.0,1.0,-1,0.0,14.797901999999794
484,1,0.6,50.0,-1.0,1,0.0,0.23170200000004115
485,1,0.6,50.0,1.0,-1,0.0,8.725301999999829
486,1,0.5,50.0,1.0,1,1.0,6.025401999999758
487,1,0.5,50.0,1.0,-1,0.0,19.535301999999774
488,1,0.5,50.0,1.0,1,1.0,0.4092019999998229
489,1,0.5,50.0,-1.0,1,0.0,2.0170020000000477
490,1,0.6,50.0,1.0,1,1.0,5.539601999999832
491,1,0.5,100.0,-1.0,1,0.0,6.727001999999629
492,1,0.7,100.0,-1.0,1,0.0,6.933301999999912
493,1,0.7,100.0,1.0,1,1.0,0.4375020000002223
494,1,0.5,100.0,-1.0,-1,1.0,7.953502000000299
495,1,0.5,100.0,-1.0,1,0.0,0.25130200000012337
496,1,0.8,100.0,-1.0,-1,1.0,1.9337020000002667
497,1,0.5,50.0,-1.0,-1,1.0,3.3605019999999968
498,1,0.5,50.0,-1.0,-1,1.0,1.6672019999996337
499,1,0.5,100.0,1.0,-1,0.0,7.401201999999557
500,1,0.5,100.0,1.0,1,1.0,0.22420199999987744
501,1,0.5,100.0,-1.0,1,0.0,0.21420199999965917
502,1,0.5,100.0,1.0,1,1.0,0.2545020000002296
503,1,0.5,50.0,-1.0,1,0.0,0.28100199999971665
504,1,0.5,50.0,1.0,1,1.0,0.2245020000000295
505,1,0.5,100.0,1.0,1,1.0,0.3376020000000608
506,1,0.5,100.0,-1.0,1,0.0,0.23460199999954057
507,1,0.7,100.0,-1.0,1,0.0,0.21820200000001932
508,1,0.8,100.0,-1.0,1,0.0,12.808301999999912
509,1,0.9,100.0,-1.0,1,0.0,0.24630199999955948
510,1,1.0,100.0,1.0,-1,0.0,15.97850200000039
511,1,0.9,100.0,-1.0,1,0.0,0.23850199999969846
512,1,0.9,100.0,-1.0,1,0.0,0.23240199999963806
513,1,0.9,100.0,1.0,-1,0.0,0.8423020000000179
1,2,0.5,100.0,1.0,-1,0.0,17.9265
2,2,0.9,100.0,-1.0,-1,1.0,16.219399999999997
3,2,0.5,50.0,-1.0,-1,1.0,20.562800000000003
4,2,0.5,100.0,-1.0,-1,1.0,6.9964999999999975
5,2,0.5,100.0,1.0,-1,0.0,25.749200000000002
6,2,0.5,100.0,1.0,-1,0.0,39.230599999999995
7,2,0.4,100.0,-1.0,1,0.0,2.4362999999999886
8,2,0.4,100.0,1.0,-1,0.0,0.8451999999999771
9,2,0.3,100.0,1.0,-1,0.0,7.51939999999999
10,2,0.2,100.0,-1.0,-1,1.0,18.58669999999998
11,2,0.5,50.0,1.0,-1,0.0,18.52939999999998
12,2,0.1,50.0,1.0,-1,0.0,8.490199999999987
13,2,0.1,50.0,-1.0,1,0.0,0.3258999999999901
14,2,0.2,50.0,1.0,-1,0.0,8.326999999999998
15,2,0.2,50.0,1.0,1,1.0,10.647400000000005
16,2,0.5,50.0,1.0,1,1.0,19.647500000000008
17,2,0.5,100.0,-1.0,1,0.0,2.5955000000000723
18,2,0.4,100.0,-1.0,-1,1.0,3.9122999999999593
19,2,0.5,50.0,-1.0,-1,1.0,15.33970000000005
20,2,0.5,50.0,1.0,-1,0.0,9.708800000000053
21,2,0.4,50.0,1.0,-1,0.0,10.9495
22,2,0.4,50.0,1.0,-1,0.0,5.541600000000074
23,2,0.4,50.0,1.0,1,1.0,2.2877000000000294
24,2,0.5,100.0,1.0,1,1.0,31.431400000000053
25,2,0.5,50.0,1.0,1,1.0,2.2305999999999813
26,2,0.5,100.0,1.0,1,1.0,1.4038000000000466
27,2,0.5,50.0,1.0,-1,0.0,4.997400000000027
28,2,0.4,50.0,-1.0,-1,1.0,6.5540000000000305
29,2,0.5,50.0,-1.0,-1,1.0,7.2697
30,2,0.5,50.0,1.0,-1,0.0,14.536700000000053
31,2,0.4,50.0,1.0,-1,0.0,8.960700000000031
32,2,0.4,50.0,-1.0,1,0.0,0.6914999999999623
33,2,0.5,50.0,1.0,-1,0.0,0.7633999999999901
34,2,0.4,50.0,1.0,-1,0.0,4.363699999999994
35,2,0.3,50.0,1.0,-1,0.0,6.07060000000007
36,2,0.2,50.0,1.0,-1,0.0,4.502800000000036
37,2,0.1,50.0,1.0,-1,0.0,12.59880000000004
38,2,0.1,50.0,1.0,1,1.0,0.4661000000000399
39,2,0.5,100.0,-1.0,1,0.0,2.4519000000000233
40,2,0.3,100.0,1.0,-1,0.0,2.766599999999926
41,2,0.3,100.0,-1.0,1,0.0,2.917799999999943
42,2,0.4,100.0,1.0,-1,0.0,0.5566000000001168
43,2,0.3,100.0,1.0,-1,0.0,0.7289000000000669
44,2,0.3,100.0,1.0,-1,0.0,3.749900000000139
45,2,0.3,100.0,1.0,-1,0.0,0.633199999999988
46,2,0.3,100.0,1.0,-1,0.0,1.022100000000023
47,2,0.3,100.0,-1.0,1,0.0,0.2478999999999587
48,2,0.4,100.0,1.0,1,1.0,2.7187999999999874
49,2,0.5,50.0,1.0,-1,0.0,0.2662999999998874
50,2,0.3,50.0,1.0,-1,0.0,0.5909000000000333
51,2,0.3,50.0,1.0,1,1.0,0.9530000000000882
52,2,0.5,50.0,1.0,-1,0.0,2.898400000000038
53,2,0.3,50.0,1.0,-1,0.0,4.007100000000037
54,2,0.3,50.0,1.0,-1,0.0,4.212800000000016
55,2,0.3,50.0,-1.0,-1,1.0,4.668000000000006
56,2,0.5,100.0,1.0,-1,0.0,6.303999999999974
57,2,0.3,100.0,1.0,-1,0.0,11.108200000000124
58,2,0.2,100.0,-1.0,-1,1.0,12.16210000000001
59,2,0.5,50.0,1.0,-1,0.0,1.6905000000000427
60,2,0.1,50.0,1.0,1,1.0,0.33589999999992415
61,2,0.5,100.0,1.0,-1,0.0,0.6191000000000031
62,2,0.1,100.0,-1.0,-1,1.0,4.976699999999937
63,2,0.5,100.0,1.0,-1,0.0,4.963399999999979
64,2,0.1,100.0,1.0,-1,0.0,8.772600000000011
65,2,0.1,100.0,1.0,-1,0.0,3.657100000000014
66,2,0.1,100.0,1.0,-1,0.0,6.9756000000000995
67,2,0.1,100.0,-1.0,-1,1.0,0.476099999999974
68,2,0.5,100.0,1.0,-1,0.0,6.576900000000023
69,2,0.1,100.0,1.0,-1,0.0,4.817999999999984
70,2,0.1,100.0,1.0,1,1.0,0.22290000000009513
71,2,0.5,100.0,1.0,1,1.0,1.5125000000000455
72,2,0.5,50.0,-1.0,-1,1.0,0.5971999999999298
73,2,0.5,100.0,1.0,-1,0.0,4.965199000000098
74,2,0.2,100.0,1.0,1,1.0,3.561900000000037
75,2,0.5,50.0,-1.0,-1,1.0,10.014700000000062
76,2,0.5,100.0,-1.0,-1,1.0,12.688600000000065
77,2,0.5,100.0,-1.0,1,0.0,2.721400000000017
78,2,0.4,100.0,-1.0,-1,1.0,14.053899999999999
79,2,0.5,50.0,1.0,-1,0.0,2.854400000000055
80,2,0.4,50.0,1.0,-1,0.0,0.39170000000001437
81,2,0.3,50.0,-1.0,-1,1.0,11.578800000000115
82,2,0.5,50.0,1.0,-1,0.0,9.58140000000003
83,2,0.2,50.0,-1.0,1,0.0,0.23470000000008895
84,2,0.3,50.0,-1.0,-1,1.0,0.9727000000000317
85,2,0.5,100.0,1.0,-1,0.0,4.323399999999992
86,2,0.2,100.0,-1.0,-1,1.0,0.35180000000002565
87,2,0.5,100.0,1.0,1,1.0,2.74450000000013
88,2,0.5,50.0,1.0,-1,0.0,6.975000000000023
89,2,0.2,50.0,-1.0,1,0.0,0.30780000000004293
90,2,0.3,50.0,-1.0,-1,1.0,1.9424000000001342
91,2,0.5,50.0,-1.0,-1,1.0,0.5747000000000071
92,2,0.5,50.0,-1.0,-1,1.0,0.5671000000000959
93,2,0.5,100.0,1.0,-1,0.0,2.6637000000000626
94,2,0.2,100.0,1.0,-1,0.0,3.6902999999999793
95,2,0.2,100.0,1.0,-1,0.0,0.1368999999999687
96,2,0.2,100.0,1.0,-1,0.0,0.8469000000000051
97,2,0.2,100.0,-1.0,-1,1.0,1.2164999999999964
98,2,0.5,100.0,1.0,1,1.0,0.29570000000001073
99,2,0.5,50.0,-1.0,-1,1.0,5.8125
100,2,0.5,50.0,-1.0,-1,1.0,0.20949900000016441
101,2,0.5,100.0,-1.0,-1,1.0,0.6744990000000826
102,2,0.5,100.0,1.0,-1,0.0,1.9383000000000266
103,2,0.1,100.0,-1.0,-1,1.0,5.375499999999988
104,2,0.5,100.0,1.0,-1,0.0,2.5942000000001144
105,2,0.1,100.0,-1.0,-1,1.0,1.583599999999933
106,2,0.5,50.0,1.0,-1,0.0,0.20500000000004093
107,2,0.1,50.0,1.0,-1,0.0,1.501700000000028
108,2,0.1,50.0,1.0,-1,0.0,0.5359000000000833
109,2,0.0,50.0,1.0,-1,0.0,2.377499999999941
110,2,0.0,50.0,1.0,-1,0.0,4.27660000000003
111,2,0.0,50.0,1.0,-1,0.0,0.5256999999999152
112,2,0.0,50.0,1.0,-1,0.0,0.4519999999999982
113,2,0.0,50.0,1.0,1,1.0,0.3285000000000764
114,2,0.5,100.0,1.0,-1,0.0,0.22889999999995325
115,2,0.1,100.0,1.0,1,1.0,10.189300000000003
116,2,0.5,100.0,1.0,1,1.0,0.2057999999999538
117,2,0.5,50.0,1.0,-1,0.0,4.935898999999836
118,2,0.3,50.0,1.0,-1,0.0,5.342600000000175
119,2,0.3,50.0,1.0,-1,0.0,4.839500000000044
120,2,0.3,50.0,-1.0,-1,1.0,3.7664000000002034
121,2,0.5,100.0,-1.0,1,0.0,3.6437000000000808
122,2,0.4,100.0,-1.0,1,0.0,11.043299999999817
123,2,0.5,100.0,1.0,-1,0.0,18.997299999999996
124,2,0.4,100.0,1.0,1,1.0,4.510600000000068
125,2,0.5,50.0,-1.0,-1,1.0,3.077400000000125
126,2,0.5,50.0,-1.0,-1,1.0,14.837800000000016
127,2,0.5,50.0,1.0,1,1.0,2.331000000000131
128,2,0.5,100.0,-1.0,-1,1.0,12.17450000000008
129,2,0.5,100.0,1.0,-1,0.0,1.174600000000055
130,2,0.4,100.0,1.0,-1,0.0,5.891500000000178
131,2,0.4,100.0,1.0,-1,0.0,3.5248999999998887
132,2,0.3,100.0,1.0,-1,0.0,1.6484999999997854
133,2,0.2,100.0,1.0,1,1.0,1.3788999999999305
134,2,0.5,100.0,1.0,-1,0.0,2.9454000000000633
135,2,0.2,100.0,1.0,1,1.0,0.25540000000000873
136,2,0.5,100.0,-1.0,-1,1.0,0.578899999999976
137,2,0.5,50.0,-1.0,1,0.0,2.9121999999999844
138,2,0.3,50.0,-1.0,-1,1.0,8.429099999999835
139,2,0.5,100.0,1.0,1,1.0,2.9954999999997654
140,2,0.5,50.0,-1.0,-1,1.0,2.2527999999999793
141,2,0.5,50.0,1.0,1,1.0,2.7590999999999894
142,2,0.5,50.0,-1.0,1,0.0,0.27949999999987085
143,2,0.6,50.0,-1.0,-1,1.0,6.8930000000002565
144,2,0.5,100.0,-1.0,-1,1.0,0.09329999999999927
145,2,0.5,100.0,1.0,-1,0.0,0.9535999999998239
146,2,0.4,100.0,1.0,-1,0.0,8.933399000000009
147,2,0.4,100.0,-1.0,1,0.0,0.4442999999998847
148,2,0.4,100.0,-1.0,-1,1.0,0.4535999999998239
149,2,0.5,100.0,1.0,-1,0.0,2.717100000000073
150,2,0.3,100.0,1.0,-1,0.0,5.340400000000045
151,2,0.3,100.0,1.0,-1,0.0,6.304200000000037
152,2,0.2,100.0,1.0,-1,0.0,6.87090000000012
153,2,0.1,100.0,-1.0,1,0.0,0.2381000000000313
154,2,0.2,100.0,1.0,-1,0.0,7.084600000000137
155,2,0.2,100.0,-1.0,1,0.0,14.128200000000106
156,2,0.3,100.0,1.0,-1,0.0,6.628400000000056
157,2,0.3,100.0,1.0,-1,0.0,0.5113990000002104
158,2,0.2,100.0,1.0,1,1.0,3.9484999999999673
159,2,0.5,50.0,1.0,-1,0.0,3.5586000000000695
160,2,0.3,50.0,1.0,1,1.0,0.26880000000005566
161,2,0.5,50.0,1.0,-1,0.0,9.12519999999995
162,2,0.4,50.0,1.0,-1,0.0,5.285800000000108
163,2,0.4,50.0,1.0,-1,0.0,0.5292999999999211
164,2,0.3,50.0,-1.0,-1,1.0,5.686000000000149
165,2,0.5,100.0,1.0,-1,0.0,11.530199999999923
166,2,0.2,100.0,1.0,-1,0.0,8.876500000000078
167,2,0.2,100.0,1.0,-1,0.0,4.623299999999972
168,2,0.2,100.0,-1.0,-1,1.0,18.55340000000001
169,2,0.5,100.0,1.0,-1,0.0,7.25649999999996
170,2,0.1,100.0,1.0,-1,0.0,0.5808000000001812
171,2,0.0,100.0,1.0,1,1.0,0.24069999999983338
172,2,0.5,100.0,1.0,-1,0.0,11.877399999999852
173,2,0.1,100.0,1.0,-1,0.0,0.6043990000000576
174,2,0.1,100.0,1.0,1,1.0,0.7744999999999891
175,2,0.5,50.0,-1.0,-1,1.0,2.9652000000000953
176,2,0.5,50.0,-1.0,1,0.0,0.29460000000017317
177,2,0.3,50.0,-1.0,-1,1.0,4.7215000000001055
178,2,0.5,50.0,1.0,-1,0.0,13.331500000000005
179,2,0.3,50.0,1.0,-1,0.0,4.318700000000035
180,2,0.3,50.0,1.0,-1,0.0,8.195300000000088
181,2,0.3,50.0,1.0,1,1.0,3.33199999999988
182,2,0.5,100.0,1.0,-1,0.0,1.2122000000001663
183,2,0.3,100.0,1.0,1,1.0,0.28949999999986176
184,2,0.5,100.0,-1.0,1,0.0,0.21239999999988868
185,2,0.4,100.0,1.0,-1,0.0,7.388599999999997
186,2,0.4,100.0,1.0,-1,0.0,9.549399999999878
187,2,0.3,100.0,1.0,-1,0.0,1.0425999999997657
188,2,0.3,100.0,-1.0,-1,1.0,0.47630000000003747
189,2,0.5,50.0,1.0,-1,0.0,9.876800000000003
190,2,0.3,50.0,1.0,-1,0.0,5.1732999999999265
191,2,0.3,50.0,1.0,1,1.0,1.7666000000001532
192,2,0.5,100.0,1.0,-1,0.0,3.8303000000000793
193,2,0.3,100.0,-1.0,-1,1.0,36.4837
194,2,0.5,50.0,-1.0,-1,1.0,1.1510000000000673
195,2,0.5,100.0,1.0,-1,0.0,11.491199999999935
196,2,0.1,100.0,1.0,-1,0.0,0.44479999999998654
197,2,0.1,100.0,-1.0,-1,1.0,9.82809999999995
198,2,0.5,100.0,1.0,1,1.0,1.6250000000002274
199,2,0.5,100.0,1.0,-1,0.0,5.111899999999878
200,2,0.2,100.0,-1.0,-1,1.0,5.158800000000156
201,2,0.5,50.0,1.0,1,1.0,0.29150000000004184
202,2,0.5,100.0,1.0,1,1.0,3.488900000000058
203,2,0.5,100.0,-1.0,-1,1.0,0.508199999999988
204,2,0.5,50.0,-1.0,-1,1.0,2.052400000000034
205,2,0.5,50.0,-1.0,-1,1.0,0.44220000000018445
206,2,0.5,100.0,1.0,-1,0.0,19.14910000000009
207,2,0.3,100.0,1.0,-1,0.0,0.658699000000297
208,2,0.3,100.0,-1.0,-1,1.0,3.149599999999964
209,2,0.5,50.0,-1.0,-1,1.0,9.528999999999996
210,2,0.5,100.0,1.0,-1,0.0,0.19339999999988322
211,2,0.2,100.0,1.0,-1,0.0,4.93730000000005
212,2,0.1,100.0,1.0,-1,0.0,6.653699999999844
213,2,0.0,100.0,-1.0,-1,1.0,2.433798999999908
214,2,0.5,100.0,1.0,-1,0.0,9.72400000000016
215,2,0.0,100.0,-1.0,-1,1.0,1.5067999999998847
216,2,0.5,50.0,1.0,-1,0.0,12.254300000000285
217,2,0.0,50.0,1.0,-1,0.0,1.2741000000000895
218,2,0.0,50.0,1.0,-1,0.0,4.687799999999925
219,2,0.0,50.0,1.0,-1,0.0,3.294200000000046
220,2,0.0,50.0,-1.0,1,0.0,0.31809900000007474
221,2,0.1,50.0,-1.0,-1,1.0,8.458000000000084
222,2,0.5,100.0,1.0,-1,0.0,0.4818000000000211
223,2,0.1,100.0,-1.0,-1,1.0,8.134400000000142
224,2,0.5,100.0,1.0,-1,0.0,2.315298999999868
225,2,0.1,100.0,1.0,-1,0.0,11.601200000000063
226,2,0.1,100.0,1.0,-1,0.0,1.8958000000000084
227,2,0.1,100.0,1.0,-1,0.0,15.875300000000152
228,2,0.1,100.0,1.0,-1,0.0,15.226200000000063
229,2,0.1,100.0,1.0,-1,0.0,4.1667999999999665
230,2,0.1,100.0,1.0,1,1.0,0.19669999999996435
231,2,0.5,50.0,1.0,-1,0.0,1.40949999999998
232,2,0.1,50.0,1.0,-1,0.0,0.6603000000000065
233,2,0.1,50.0,1.0,-1,0.0,6.239599999999882
234,2,0.1,50.0,1.0,-1,0.0,3.9038000000000466
235,2,0.1,50.0,1.0,1,1.0,11.084199999999782
236,2,0.5,100.0,-1.0,-1,1.0,3.4675000000002
237,2,0.5,50.0,-1.0,-1,1.0,0.5104000000001179
238,2,0.5,100.0,1.0,-1,0.0,14.59100000000035
239,2,0.2,100.0,1.0,-1,0.0,0.6349000000004708
240,2,0.2,100.0,-1.0,-1,1.0,6.66150000000016
241,2,0.5,50.0,1.0,-1,0.0,8.437399999999798
242,2,0.1,50.0,1.0,1,1.0,31.05179999999973
243,2,0.5,100.0,1.0,-1,0.0,14.998700000000099
244,2,0.2,100.0,1.0,-1,0.0,5.849500000000262
245,2,0.2,100.0,1.0,-1,0.0,0.49909999999999854
246,2,0.1,100.0,1.0,-1,0.0,10.782999999999902
247,2,0.1,100.0,-1.0,1,0.0,13.350100000000111
248,2,0.2,100.0,1.0,-1,0.0,14.596900000000005
249,2,0.2,100.0,-1.0,-1,1.0,18.48779999999988
250,2,0.5,50.0,1.0,-1,0.0,3.064400000000205
251,2,0.2,50.0,1.0,-1,0.0,1.3141999999998006
252,2,0.2,50.0,1.0,-1,0.0,5.281199999999899
253,2,0.1,50.0,1.0,-1,0.0,8.657900000000154
254,2,0.1,50.0,1.0,1,1.0,2.190900000000056
255,2,0.5,50.0,1.0,-1,0.0,3.0949999999998
256,2,0.2,50.0,1.0,-1,0.0,3.988499999999931
257,2,0.2,50.0,1.0,-1,0.0,10.618600000000242
258,2,0.1,50.0,1.0,1,1.0,7.077899999999772
259,2,0.5,100.0,1.0,1,1.0,1.392399999999725
260,2,0.5,50.0,-1.0,-1,1.0,0.38910000000032596
261,2,0.5,100.0,-1.0,-1,1.0,8.72249899999997
262,2,0.5,100.0,1.0,1,1.0,0.30589999999983775
263,2,0.5,50.0,1.0,-1,0.0,12.279399999999896
264,2,0.4,50.0,-1.0,-1,1.0,2.959400000000187
265,2,0.5,100.0,1.0,-1,0.0,17.579999999999927
266,2,0.3,100.0,-1.0,1,0.0,21.19750000000022
267,2,0.4,100.0,1.0,1,1.0,1.6307000000001608
268,2,0.5,100.0,-1.0,-1,1.0,0.7080999999998312
269,2,0.5,100.0,1.0,-1,0.0,4.240900000000238
270,2,0.3,100.0,-1.0,-1,1.0,1.651198999999906
271,2,0.5,100.0,-1.0,-1,1.0,0.3843000000001666
272,2,0.5,50.0,1.0,1,1.0,1.0414999999998145
273,2,0.5,50.0,-1.0,1,0.0,4.154700000000048
274,2,0.4,50.0,1.0,-1,0.0,17.425399999999627
275,2,0.4,50.0,1.0,-1,0.0,0.5050999999998567
276,2,0.4,50.0,-1.0,-1,1.0,3.5317000000000007
277,2,0.5,100.0,1.0,-1,0.0,6.018500000000131
278,2,0.2,100.0,1.0,-1,0.0,1.0262000000002445
279,2,0.2,100.0,-1.0,1,0.0,0.6787999999996828
280,2,0.3,100.0,-1.0,-1,1.0,0.441899999999805
281,2,0.5,100.0,1.0,1,1.0,2.092399999999998
282,2,0.5,100.0,-1.0,-1,1.0,21.595200000000204
283,2,0.5,100.0,-1.0,-1,1.0,8.942800000000261
284,2,0.5,50.0,-1.0,-1,1.0,0.3996999999999389
285,2,0.5,100.0,1.0,1,1.0,1.239799999999832
286,2,0.5,50.0,-1.0,-1,1.0,0.3797999999997046
287,2,0.5,50.0,1.0,-1,0.0,8.013300000000072
288,2,0.3,50.0,-1.0,-1,1.0,14.746799999999894
289,2,0.5,100.0,-1.0,-1,1.0,0.4904999999998836
290,2,0.5,50.0,-1.0,-1,1.0,0.9540999999999258
291,2,0.5,100.0,-1.0,-1,1.0,31.054000000000087
292,2,0.5,100.0,-1.0,-1,1.0,0.1275999999998021
293,2,0.5,100.0,1.0,-1,0.0,2.431199999999535
294,2,0.1,100.0,-1.0,-1,1.0,0.4515000000001237
295,2,0.5,100.0,1.0,-1,0.0,26.728099999999813
296,2,0.0,100.0,-1.0,-1,1.0,0.44849999999996726
297,2,0.5,50.0,1.0,-1,0.0,18.015399999999772
298,2,0.0,50.0,1.0,-1,0.0,23.558500000000095
299,2,0.0,50.0,1.0,-1,0.0,11.996200000000044
300,2,0.0,50.0,1.0,-1,0.0,3.889599999999973
301,2,0.0,50.0,1.0,-1,0.0,3.4732999999996537
302,2,0.0,50.0,-1.0,-1,1.0,25.20069999999987
303,2,0.5,100.0,1.0,-1,0.0,25.390699999999924
304,2,0.0,100.0,1.0,-1,0.0,23.127800000000207
305,2,0.0,100.0,1.0,-1,0.0,7.178300000000036
306,2,0.0,100.0,1.0,-1,0.0,23.67489999999998
307,2,0.0,100.0,1.0,-1,0.0,1.0289999999999964
308,2,0.0,100.0,1.0,-1,0.0,34.05590000000029
309,2,0.0,100.0,1.0,-1,0.0,23.659900000000107
310,2,0.0,100.0,1.0,-1,0.0,2.73700000000008
311,2,0.0,100.0,1.0,-1,0.0,12.29379999999992
312,2,0.0,100.0,1.0,-1,0.0,7.541099999999915
313,2,0.0,100.0,-1.0,-1,1.0,7.361099000000195
314,2,0.5,100.0,1.0,-1,0.0,0.6172999999998865
315,2,0.0,100.0,1.0,-1,0.0,24.731199999999717
316,2,0.0,100.0,1.0,1,1.0,18.828199999999924
317,2,0.5,100.0,1.0,-1,0.0,54.6255000000001
318,2,0.1,100.0,1.0,-1,0.0,6.106600000000071
319,2,0.1,100.0,1.0,-1,0.0,16.17340000000013
320,2,0.1,100.0,1.0,-1,0.0,18.02410000000009
321,2,0.1,100.0,1.0,-1,0.0,14.484199999999873
322,2,0.1,100.0,-1.0,-1,1.0,4.120899999999892
323,2,0.5,100.0,1.0,-1,0.0,42.66469899999993
324,2,0.1,100.0,-1.0,-1,1.0,1.5027000000000044
325,2,0.5,100.0,1.0,1,1.0,0.7422999999994317
326,2,0.5,100.0,1.0,-1,0.0,35.09670000000051
327,2,0.1,100.0,1.0,-1,0.0,9.783000999999786
328,2,0.1,100.0,1.0,-1,0.0,5.853000999999949
329,2,0.1,100.0,1.0,-1,0.0,0.8068010000001777
330,2,0.1,100.0,1.0,-1,0.0,4.499800999999479
331,2,0.1,100.0,1.0,-1,0.0,2.1504009999998743
332,2,0.1,100.0,1.0,-1,0.0,4.0468009999999595
333,2,0.1,100.0,1.0,1,1.0,8.360801000000265
334,2,0.5,50.0,1.0,-1,0.0,19.240900000000238
335,2,0.2,50.0,1.0,-1,0.0,4.7247010000000955
336,2,0.1,50.0,1.0,-1,0.0,0.6986010000000533
337,2,0.1,50.0,1.0,-1,0.0,7.345000999999684
1,3,0.5,50.0,1.0,1,1.0,0.3365
2,3,0.5,50.0,1.0,-1,0.0,0.3705999999999996
3,3,0.9,50.0,-1.0,-1,1.0,17.262
4,3,0.5,100.0,-1.0,-1,1.0,10.553199999999997
5,3,0.5,50.0,-1.0,-1,1.0,10.238399999999999
6,3,0.5,50.0,1.0,-1,0.0,3.931899999999999
7,3,0.5,50.0,1.0,-1,0.0,1.2826999999999913
8,3,0.4,50.0,1.0,-1,0.0,1.1709999999999923
9,3,0.3,50.0,1.0,-1,0.0,1.4017000000000053
10,3,0.2,50.0,-1.0,1,0.0,0.46519999999999584
11,3,0.2,50.0,-1.0,-1,1.0,4.357700000000008
12,3,0.5,50.0,1.0,-1,0.0,3.0279000000000025
13,3,0.1,50.0,1.0,1,1.0,0.2815999999999974
14,3,0.5,50.0,1.0,-1,0.0,4.048500000000004
15,3,0.2,50.0,-1.0,-1,1.0,0.5436000000000121
16,3,0.5,50.0,-1.0,-1,1.0,2.806600000000003
17,3,0.5,50.0,1.0,1,1.0,0.25669899999999757
18,3,0.5,100.0,-1.0,1,0.0,2.8078000000000003
19,3,0.4,100.0,1.0,-1,0.0,3.979499999999973
20,3,0.4,100.0,-1.0,-1,1.0,0.7636999999999716
21,3,0.5,100.0,1.0,1,1.0,0.25619999999997844
22,3,0.5,50.0,1.0,-1,0.0,6.745499999999964
23,3,0.4,50.0,-1.0,-1,1.0,3.1226999999999805
24,3,0.5,50.0,1.0,-1,0.0,1.188699999999983
25,3,0.3,50.0,-1.0,-1,1.0,1.0807000000000073
26,3,0.5,100.0,1.0,1,1.0,2.7805999999999926
27,3,0.5,100.0,-1.0,-1,1.0,7.272399999999976
28,3,0.5,100.0,1.0,-1,0.0,6.022799999999961
29,3,0.2,100.0,1.0,-1,0.0,3.9239000000000033
30,3,0.2,100.0,1.0,-1,0.0,5.163199999999961
31,3,0.2,100.0,1.0,-1,0.0,0.4855000000000018
32,3,0.1,100.0,1.0,1,1.0,3.324099999999987
33,3,0.5,100.0,1.0,-1,0.0,0.3902999999999963
34,3,0.2,100.0,-1.0,-1,1.0,0.428499999999957
35,3,0.5,50.0,1.0,1,1.0,1.5669999999999789
36,3,0.5,50.0,-1.0,1,0.0,0.2740000000000009
37,3,0.3,50.0,1.0,-1,0.0,4.834299999999985
38,3,0.3,50.0,1.0,-1,0.0,1.0767999999999915
39,3,0.3,50.0,1.0,-1,0.0,3.5915999999999713
40,3,0.3,50.0,1.0,-1,0.0,1.9619000000000142
41,3,0.3,50.0,1.0,-1,0.0,0.6718000000000188
42,3,0.3,50.0,1.0,1,1.0,0.25940000000002783
43,3,0.5,50.0,1.0,-1,0.0,0.5579999999999927
44,3,0.3,50.0,1.0,-1,0.0,5.059500000000014
45,3,0.3,50.0,1.0,-1,0.0,4.182999999999993
46,3,0.2,50.0,1.0,-1,0.0,0.3838000000000079
47,3,0.1,50.0,1.0,-1,0.0,0.5387999999999806
48,3,0.1,50.0,1.0,-1,0.0,0.9014000000000237
49,3,0.1,50.0,-1.0,1,0.0,4.825399999999945
50,3,0.2,50.0,-1.0,-1,1.0,0.5749999999999886
51,3,0.5,50.0,1.0,1,1.0,1.9756999999999607
52,3,0.5,100.0,1.0,1,1.0,0.2710999999999899
53,3,0.5,100.0,-1.0,-1,1.0,3.7081000000000017
54,3,0.5,100.0,-1.0,-1,1.0,0.6899000000000228
55,3,0.5,50.0,-1.0,-1,1.0,7.168599999999969
56,3,0.5,100.0,1.0,-1,0.0,3.622199999999964
57,3,0.3,100.0,1.0,1,1.0,0.27129999999999654
58,3,0.5,100.0,1.0,-1,0.0,2.7462999999999624
59,3,0.4,100.0,1.0,-1,0.0,0.9765990000000215
60,3,0.3,100.0,-1.0,-1,1.0,1.3672000000000253
61,3,0.5,100.0,1.0,1,1.0,1.5214999999999463
62,3,0.5,100.0,-1.0,1,0.0,0.23680000000001655
63,3,0.3,100.0,-1.0,1,0.0,0.3055999999999699
64,3,0.4,100.0,1.0,1,1.0,0.2307999999999879
65,3,0.5,100.0,1.0,1,1.0,0.28659999999996444
66,3,0.5,100.0,-1.0,-1,1.0,0.43770000000000664
67,3,0.5,100.0,1.0,-1,0.0,1.8945999999999685
68,3,0.5,100.0,-1.0,-1,1.0,1.1295989999999847
69,3,0.5,50.0,1.0,-1,0.0,0.46860000000003765
70,3,0.5,50.0,1.0,1,1.0,0.22859999999997171
71,3,0.5,100.0,1.0,-1,0.0,3.410599999999988
72,3,0.5,100.0,-1.0,1,0.0,1.069500000000005
73,3,0.5,100.0,-1.0,1,0.0,0.9035999999999831
74,3,0.5,100.0,1.0,-1,0.0,5.743499999999983
75,3,0.4,100.0,1.0,-1,0.0,9.286799999999971
76,3,0.3,100.0,-1.0,1,0.0,0.2811999999999557
77,3,0.4,100.0,-1.0,-1,1.0,0.9686990000000151
78,3,0.5,50.0,1.0,1,1.0,2.8496999999999844
79,3,0.5,50.0,1.0,-1,0.0,2.6177000000000135
80,3,0.5,50.0,1.0,-1,0.0,0.5021999999999593
81,3,0.4,50.0,-1.0,-1,1.0,3.691699999999912
82,3,0.5,100.0,1.0,-1,0.0,0.47270000000003165
83,3,0.3,100.0,1.0,-1,0.0,0.7356999999999516
84,3,0.2,100.0,-1.0,-1,1.0,2.522299999999973
85,3,0.5,100.0,1.0,-1,0.0,0.4556999999999789
86,3,0.2,100.0,-1.0,-1,1.0,6.859699999999975
87,3,0.5,100.0,1.0,-1,0.0,2.634700000000066
88,3,0.1,100.0,1.0,-1,0.0,0.6598000000000184
89,3,0.0,100.0,-1.0,1,0.0,0.2258000000000493
90,3,0.1,100.0,1.0,-1,0.0,0.4822000000000344
91,3,0.1,100.0,1.0,-1,0.0,0.4701999999999771
92,3,0.1,100.0,1.0,1,1.0,1.231300000000033
93,3,0.5,100.0,1.0,-1,0.0,1.633799999999951
94,3,0.2,100.0,1.0,-1,0.0,0.8149000000000797
95,3,0.2,100.0,1.0,-1,0.0,0.685100000000034
96,3,0.2,100.0,-1.0,1,0.0,0.22460000000000946
97,3,0.3,100.0,1.0,-1,0.0,2.316799999999944
98,3,0.3,100.0,1.0,-1,0.0,3.9510999999999967
99,3,0.3,100.0,1.0,-1,0.0,2.869899999999916
100,3,0.2,100.0,1.0,1,1.0,0.27920000000005984
101,3,0.5,100.0,-1.0,-1,1.0,1.0375000000000227
102,3,0.5,50.0,1.0,-1,0.0,7.0482999999999265
103,3,0.2,50.0,1.0,-1,0.0,3.562899000000016
104,3,0.2,50.0,1.0,1,1.0,0.2380000000000564
105,3,0.5,50.0,1.0,1,1.0,0.2884999999999991
106,3,0.5,50.0,1.0,-1,0.0,3.400100000000066
107,3,0.3,50.0,1.0,-1,0.0,1.2098999999999478
108,3,0.3,50.0,1.0,-1,0.0,1.8210000000000264
109,3,0.3,50.0,1.0,-1,0.0,0.564200000000028
110,3,0.3,50.0,-1.0,-1,1.0,0.38819999999998345
111,3,0.5,100.0,-1.0,1,0.0,1.6809999999999263
112,3,0.3,100.0,1.0,-1,0.0,1.745999999999981
113,3,0.3,100.0,1.0,-1,0.0,3.0323000000000775
114,3,0.3,100.0,-1.0,-1,1.0,2.619000000000028
115,3,0.5,100.0,1.0,-1,0.0,1.9600000000000364
116,3,0.1,100.0,-1.0,-1,1.0,0.4417999999999438
117,3,0.5,100.0,1.0,1,1.0,2.1277000000000044
118,3,0.5,100.0,1.0,-1,0.0,4.417299999999841
119,3,0.2,100.0,1.0,1,1.0,0.3651000000000977
120,3,0.5,50.0,1.0,-1,0.0,4.874500000000012
121,3,0.3,50.0,1.0,-1,0.0,0.8260999999999967
122,3,0.2,50.0,1.0,-1,0.0,3.4290999999999485
123,3,0.2,50.0,1.0,1,1.0,0.3591999999999871
124,3,0.5,100.0,1.0,-1,0.0,0.42660000000000764
125,3,0.3,100.0,-1.0,-1,1.0,0.7812000000000126
126,3,0.5,100.0,1.0,-1,0.0,6.20920000000001
127,3,0.3,100.0,1.0,-1,0.0,0.928600000000074
128,3,0.2,100.0,1.0,1,1.0,0.23310000000003583
129,3,0.5,50.0,-1.0,-1,1.0,0.2600999999999658
130,3,0.5,100.0,-1.0,1,0.0,0.12420000000008713
131,3,0.3,100.0,1.0,1,1.0,3.220199999999977
132,3,0.5,100.0,-1.0,1,0.0,4.727500000000077
133,3,0.5,100.0,1.0,-1,0.0,4.655099999999948
134,3,0.4,100.0,1.0,-1,0.0,0.4411999999999807
135,3,0.4,100.0,1.0,-1,0.0,1.841899999999896
136,3,0.4,100.0,-1.0,1,0.0,0.22839999999996508
137,3,0.5,100.0,-1.0,-1,1.0,0.8561999999999443
138,3,0.5,50.0,1.0,1,1.0,4.965799999999945
139,3,0.5,100.0,1.0,1,1.0,0.28729900000007547
140,3,0.5,100.0,-1.0,1,0.0,0.2520000000000664
141,3,0.6,100.0,-1.0,-1,1.0,2.3360000000000127
142,3,0.5,100.0,1.0,-1,0.0,0.32730000000003656
143,3,0.4,100.0,1.0,-1,0.0,0.9092999999999165
144,3,0.4,100.0,1.0,-1,0.0,11.370400000000018
145,3,0.4,100.0,1.0,1,1.0,0.24959999999998672
146,3,0.5,50.0,-1.0,-1,1.0,0.22810000000004038
147,3,0.5,50.0,1.0,-1,0.0,2.1440000000000055
148,3,0.4,50.0,1.0,-1,0.0,0.3402999999999565
149,3,0.3,50.0,1.0,-1,0.0,0.44439999999997326
150,3,0.2,50.0,1.0,-1,0.0,6.04810000000009
151,3,0.1,50.0,1.0,-1,0.0,0.5475999999998749
152,3,0.1,50.0,1.0,1,1.0,0.3225999999999658
153,3,0.5,100.0,1.0,-1,0.0,0.6435999999999922
154,3,0.2,100.0,1.0,-1,0.0,1.4141000000000759
155,3,0.2,100.0,-1.0,1,0.0,0.26080000000001746
156,3,0.2,100.0,-1.0,1,0.0,0.21100000000001273
157,3,0.3,100.0,1.0,-1,0.0,3.4873999999999796
158,3,0.3,100.0,1.0,-1,0.0,1.1640999999999622
159,3,0.3,100.0,-1.0,-1,1.0,3.91680000000008
160,3,0.5,100.0,-1.0,1,0.0,3.4115000000000464
161,3,0.4,100.0,-1.0,-1,1.0,1.1143989999999349
162,3,0.5,100.0,1.0,-1,0.0,0.6656000000000404
163,3,0.3,100.0,1.0,-1,0.0,0.6124999999999545
164,3,0.3,100.0,1.0,1,1.0,0.3466999999999416
165,3,0.5,100.0,1.0,-1,0.0,0.6219989999999598
166,3,0.3,100.0,1.0,1,1.0,0.9765999999999622
167,3,0.5,100.0,1.0,-1,0.0,1.0264999999999418
168,3,0.3,100.0,1.0,-1,0.0,0.9675000000000864
169,3,0.3,100.0,1.0,-1,0.0,0.4068999999999505
170,3,0.3,100.0,1.0,1,1.0,0.28920000000005075
171,3,0.5,100.0,1.0,-1,0.0,5.736099999999965
172,3,0.3,100.0,1.0,1,1.0,0.2520999999999276
173,3,0.5,50.0,-1.0,1,0.0,0.2726000000000113
174,3,0.5,50.0,-1.0,-1,1.0,1.0588999999999942
175,3,0.5,100.0,-1.0,1,0.0,0.5272999999998547
176,3,0.5,100.0,1.0,1,1.0,0.27569900000003145
177,3,0.5,100.0,1.0,-1,0.0,0.49289999999996326
178,3,0.5,100.0,1.0,-1,0.0,3.502600000000257
179,3,0.5,100.0,1.0,-1,0.0,0.5470000000000255
180,3,0.5,100.0,-1.0,-1,1.0,0.4494999999999436
181,3,0.5,50.0,1.0,-1,0.0,2.247400000000198
182,3,0.4,50.0,-1.0,1,0.0,0.202900000000227
183,3,0.4,50.0,1.0,-1,0.0,0.7382000000000062
184,3,0.3,50.0,1.0,-1,0.0,0.4697000000001026
185,3,0.3,50.0,1.0,-1,0.0,0.4136999999998352
186,3,0.2,50.0,1.0,1,1.0,1.1199000000001433
187,3,0.5,100.0,1.0,1,1.0,0.27800000000002
188,3,0.5,50.0,-1.0,-1,1.0,0.9467000000001917
189,3,0.5,50.0,1.0,-1,0.0,0.5943999999999505
190,3,0.3,50.0,-1.0,-1,1.0,1.4169000000001688
191,3,0.5,50.0,-1.0,-1,1.0,5.091600000000199
192,3,0.5,50.0,1.0,-1,0.0,0.740500000000111
193,3,0.2,50.0,1.0,-1,0.0,0.9356999999999971
194,3,0.2,50.0,1.0,-1,0.0,0.5341000000000804
195,3,0.2,50.0,1.0,1,1.0,3.7379000000000815
196,3,0.5,50.0,1.0,-1,0.0,0.47420000000010987
197,3,0.2,50.0,-1.0,1,0.0,0.2417000000000371
198,3,0.2,50.0,1.0,-1,0.0,0.5209000000002106
199,3,0.2,50.0,1.0,-1,0.0,0.6450000000002092
200,3,0.2,50.0,-1.0,-1,1.0,5.824500000000171
201,3,0.5,50.0,1.0,-1,0.0,0.33600000000001273
202,3,0.2,50.0,1.0,-1,0.0,0.6115000000002055
203,3,0.2,50.0,1.0,-1,0.0,3.482800000000225
204,3,0.2,50.0,1.0,-1,0.0,0.6585000000000036
205,3,0.2,50.0,-1.0,-1,1.0,0.38350000000014006
206,3,0.5,50.0,1.0,-1,0.0,0.10520000000019536
207,3,0.1,50.0,1.0,-1,0.0,4.395900000000211
208,3,0.0,50.0,-1.0,-1,1.0,0.9920999999999367
209,3,0.5,50.0,1.0,-1,0.0,0.4329999999999927
210,3,0.0,50.0,1.0,-1,0.0,0.49230000000011387
211,3,0.0,50.0,1.0,-1,0.0,1.8363000000001648
212,3,0.0,50.0,1.0,-1,0.0,0.315900000000056
213,3,0.0,50.0,1.0,1,1.0,1.6568990000000667
214,3,0.5,100.0,1.0,-1,0.0,0.6893999999999778
215,3,0.1,100.0,-1.0,1,0.0,0.27670000000011896
216,3,0.2,100.0,1.0,1,1.0,1.0330000000001291
217,3,0.5,100.0,-1.0,-1,1.0,0.6544000000001233
218,3,0.5,100.0,-1.0,-1,1.0,0.5263999999999669
219,3,0.5,50.0,1.0,-1,0.0,0.5173999999999523
220,3,0.3,50.0,1.0,-1,0.0,1.1532000000001972
221,3,0.3,50.0,1.0,1,1.0,0.27140000000008513
222,3,0.5,100.0,1.0,-1,0.0,0.5401000000001659
223,3,0.4,100.0,1.0,-1,0.0,1.1714999999999236
224,3,0.3,100.0,1.0,1,1.0,0.22700000000008913
225,3,0.5,50.0,1.0,-1,0.0,0.5510000000001583
226,3,0.3,50.0,1.0,-1,0.0,6.333700000000135
227,3,0.2,50.0,1.0,-1,0.0,0.4680000000000746
228,3,0.2,50.0,1.0,1,1.0,0.21720000000004802
229,3,0.5,100.0,1.0,-1,0.0,0.6246000000001004
230,3,0.3,100.0,1.0,-1,0.0,1.0075000000001637
231,3,0.3,100.0,1.0,-1,0.0,1.8053999999999633
232,3,0.2,100.0,1.0,1,1.0,0.4110000000002856
233,3,0.5,100.0,1.0,-1,0.0,2.8021000000001095
234,3,0.3,100.0,1.0,1,1.0,0.8545000000003711
235,3,0.5,100.0,1.0,-1,0.0,2.988900000000058
236,3,0.3,100.0,-1.0,-1,1.0,0.5014000000001033
237,3,0.5,50.0,1.0,-1,0.0,2.585199999999986
238,3,0.3,50.0,1.0,-1,0.0,0.5982000000001335
239,3,0.2,50.0,-1.0,-1,1.0,0.7227000000000317
240,3,0.5,100.0,1.0,-1,0.0,1.3450000000000273
241,3,0.2,100.0,1.0,1,1.0,0.3731999999999971
242,3,0.5,100.0,1.0,1,1.0,0.29529999999999745
243,3,0.5,100.0,-1.0,-1,1.0,1.186200000000099
244,3,0.5,50.0,1.0,-1,0.0,1.662000000000262
245,3,0.2,50.0,1.0,1,1.0,0.2533000000000811
246,3,0.5,100.0,1.0,-1,0.0,0.972199000000046
247,3,0.3,100.0,1.0,-1,0.0,0.9393999999999778
248,3,0.3,100.0,1.0,-1,0.0,3.8423000000002503
249,3,0.3,100.0,1.0,-1,0.0,0.9464000000000397
250,3,0.3,100.0,-1.0,-1,1.0,1.1958000000001903
251,3,0.5,50.0,1.0,-1,0.0,0.4333999999998923
252,3,0.2,50.0,1.0,-1,0.0,0.6893999999999778
253,3,0.1,50.0,1.0,-1,0.0,0.5213000000001102
254,3,0.1,50.0,1.0,-1,0.0,1.0962999999999283
255,3,0.1,50.0,1.0,-1,0.0,0.4773000000002412
256,3,0.0,50.0,1.0,-1,0.0,0.6733000000001539
257,3,0.0,50.0,1.0,-1,0.0,2.317600000000084
258,3,0.0,50.0,1.0,-1,0.0,0.43000000000006366
259,3,0.0,50.0,1.0,1,1.0,0.2878000000002885
260,3,0.5,50.0,1.0,-1,0.0,0.6434999999999036
261,3,0.1,50.0,1.0,-1,0.0,1.1381000000001222
262,3,0.1,50.0,1.0,1,1.0,0.21710000000007312
263,3,0.5,50.0,1.0,-1,0.0,1.0450000000000728
264,3,0.2,50.0,-1.0,-1,1.0,0.7373999999999796
265,3,0.5,100.0,1.0,1,1.0,2.924400000000105
266,3,0.5,50.0,1.0,1,1.0,0.8207999999999629
267,3,0.5,50.0,1.0,-1,0.0,1.428400000000238
268,3,0.4,50.0,1.0,1,1.0,0.2843990000001213
269,3,0.5,50.0,1.0,-1,0.0,1.3895000000002256
270,3,0.4,50.0,-1.0,1,0.0,0.3144000000002052
271,3,0.5,50.0,-1.0,1,0.0,0.1955000000000382
272,3,0.6,50.0,-1.0,1,0.0,0.2644999999999982
273,3,0.6,50.0,-1.0,-1,1.0,1.0083999999999378
274,3,0.5,100.0,-1.0,-1,1.0,2.991999999999962
275,3,0.5,50.0,-1.0,-1,1.0,0.814900000000307
276,3,0.5,50.0,1.0,-1,0.0,0.7925000000002456
277,3,0.4,50.0,-1.0,1,0.0,2.9549000000001797
278,3,0.5,50.0,-1.0,-1,1.0,0.5054990000000998
279,3,0.5,100.0,1.0,-1,0.0,0.41849999999999454
280,3,0.4,100.0,-1.0,1,0.0,0.240099999999984
281,3,0.4,100.0,-1.0,-1,1.0,3.2086000000001604
282,3,0.5,50.0,-1.0,-1,1.0,0.8369000000002416
283,3,0.5,100.0,1.0,-1,0.0,0.9755000000002383
284,3,0.2,100.0,1.0,-1,0.0,0.5497000000002572
285,3,0.2,100.0,-1.0,-1,1.0,0.6756000000000313
286,3,0.5,50.0,1.0,-1,0.0,0.48959999999988213
287,3,0.2,50.0,1.0,1,1.0,0.22250000000008185
288,3,0.5,100.0,1.0,-1,0.0,0.6397990000000391
289,3,0.2,100.0,-1.0,1,0.0,1.2426000000000386
290,3,0.3,100.0,1.0,1,1.0,0.23659999999995307
291,3,0.5,50.0,1.0,1,1.0,0.3328000000001339
292,3,0.5,50.0,-1.0,1,0.0,0.22420000000010987
293,3,0.5,50.0,-1.0,1,0.0,0.2397000000000844
294,3,0.6,50.0,1.0,1,1.0,0.2675000000001546
295,3,0.5,100.0,-1.0,-1,1.0,0.9267000000002099
296,3,0.5,100.0,1.0,-1,0.0,1.2609999999999673
297,3,0.7,100.0,1.0,-1,0.0,0.8700000000001182
298,3,0.6,100.0,-1.0,-1,1.0,1.2874000000001615
299,3,0.5,50.0,-1.0,-1,1.0,0.49680000000012114
300,3,0.5,100.0,1.0,1,1.0,3.074700000000121
301,3,0.5,50.0,-1.0,1,0.0,0.24040000000036343
302,3,0.5,50.0,-1.0,1,0.0,1.8341000000002623
303,3,0.5,50.0,-1.0,-1,1.0,0.7971000000000004
304,3,0.5,100.0,1.0,-1,0.0,0.9814989999999852
305,3,0.3,100.0,1.0,1,1.0,0.23410000000012587
306,3,0.5,100.0,1.0,-1,0.0,0.4419000000000324
307,3,0.4,100.0,1.0,-1,0.0,1.840900000000147
308,3,0.4,100.0,1.0,-1,0.0,0.4419000000000324
309,3,0.4,100.0,1.0,-1,0.0,0.7844000000000051
310,3,0.4,100.0,1.0,-1,0.0,5.135999999999967
311,3,0.3,100.0,1.0,1,1.0,0.24799999999981992
312,3,0.5,50.0,-1.0,-1,1.0,1.1685999999999694
313,3,0.5,100.0,1.0,1,1.0,0.22149999999987813
314,3,0.5,50.0,1.0,-1,0.0,0.5454000000001997
315,3,0.3,50.0,1.0,-1,0.0,1.2084000000002106
316,3,0.2,50.0,1.0,-1,0.0,0.5029000000001815
317,3,0.2,50.0,1.0,-1,0.0,2.8519000000001142
318,3,0.2,50.0,1.0,-1,0.0,0.44659999999998945
319,3,0.2,50.0,1.0,-1,0.0,0.7954999999999472
320,3,0.2,50.0,1.0,-1,0.0,1.1868999999999232
321,3,0.2,50.0,1.0,-1,0.0,0.5289000000000215
322,3,0.1,50.0,1.0,-1,0.0,0.6468999999999596
323,3,0.1,50.0,1.0,-1,0.0,0.6225000000001728
324,3,0.0,50.0,1.0,-1,0.0,5.3262999999999465
325,3,0.0,50.0,1.0,-1,0.0,0.2861000000002605
326,3,0.0,50.0,1.0,1,1.0,6.067000000000235
327,3,0.5,100.0,1.0,-1,0.0,1.4831000000001495
328,3,0.1,100.0,1.0,-1,0.0,1.33400000000006
329,3,0.1,100.0,1.0,-1,0.0,0.7200000000002547
330,3,0.1,100.0,1.0,-1,0.0,0.5010999999999513
331,3,0.1,100.0,-1.0,-1,1.0,0.5667000000000826
332,3,0.5,100.0,1.0,-1,0.0,5.231099999999969
333,3,0.1,100.0,1.0,-1,0.0,0.5734999999999673
334,3,0.1,100.0,1.0,-1,0.0,0.5507000000002336
335,3,0.1,100.0,1.0,-1,0.0,0.6270000000001801
336,3,0.1,100.0,-1.0,1,0.0,0.227500000000191
337,3,0.1,100.0,1.0,1,1.0,0.4371000000001004
338,3,0.5,100.0,1.0,-1,0.0,0.7351000000001022
339,3,0.2,100.0,1.0,-1,0.0,1.4773000000000138
340,3,0.2,100.0,-1.0,-1,1.0,0.8347000000001117
341,3,0.5,50.0,1.0,-1,0.0,0.45430000000010295
342,3,0.2,50.0,-1.0,-1,1.0,0.9382000000000517
343,3,0.5,100.0,1.0,-1,0.0,4.344400000000178
344,3,0.2,100.0,1.0,-1,0.0,0.8158000000003085
345,3,0.2,100.0,-1.0,1,0.0,0.26470000000017535
346,3,0.3,100.0,-1.0,-1,1.0,0.7055000000002565
347,3,0.5,100.0,-1.0,-1,1.0,5.221400000000131
348,3,0.5,100.0,-1.0,-1,1.0,0.6955000000000382
349,3,0.5,100.0,1.0,-1,0.0,3.4583000000002357
350,3,0.1,100.0,1.0,1,1.0,0.23890000000005784
351,3,0.5,100.0,-1.0,-1,1.0,0.5419000000001688
352,3,0.5,50.0,1.0,-1,0.0,0.49240000000008877
353,3,0.2,50.0,1.0,-1,0.0,0.41209900000012567
354,3,0.2,50.0,1.0,-1,0.0,0.5658000000003085
355,3,0.2,50.0,-1.0,-1,1.0,4.308800000000019
356,3,0.5,100.0,1.0,-1,0.0,0.5233000000002903
357,3,0.1,100.0,1.0,1,1.0,0.23250000000030013
358,3,0.5,100.0,1.0,-1,0.0,0.6334000000001652
359,3,0.2,100.0,1.0,-1,0.0,0.5027000000000044
360,3,0.2,100.0,-1.0,-1,1.0,0.5440000000000964
361,3,0.5,100.0,1.0,-1,0.0,1.2329000000001997
362,3,0.1,100.0,1.0,-1,0.0,0.8604000000000269
363,3,0.1,100.0,1.0,-1,0.0,0.5131000000001222
364,3,0.1,100.0,1.0,-1,0.0,0.4473000000000411
365,3,0.1,100.0,1.0,-1,0.0,0.7264999999999873
366,3,0.1,100.0,1.0,-1,0.0,0.8804000000002361
367,3,0.1,100.0,1.0,-1,0.0,4.443400000000111
368,3,0.0,100.0,1.0,-1,0.0,4.154099999999971
369,3,0.0,100.0,-1.0,-1,1.0,3.6202999999998156
370,3,0.5,100.0,1.0,1,1.0,1.1851000000001477
371,3,0.5,50.0,-1.0,-1,1.0,0.7406000000003132
372,3,0.5,100.0,-1.0,1,0.0,0.23520000000007713
373,3,0.2,100.0,1.0,-1,0.0,0.4806999999996151
374,3,0.2,100.0,1.0,-1,0.0,0.7055000000000291
375,3,0.2,100.0,1.0,-1,0.0,0.4576000000001841
376,3,0.2,100.0,1.0,-1,0.0,0.5046990000000733
377,3,0.2,100.0,1.0,-1,0.0,0.5909999999994398
378,3,0.2,100.0,1.0,1,1.0,3.655499999999847
379,3,0.5,100.0,1.0,-1,0.0,2.6378999999997177
380,3,0.3,100.0,-1.0,-1,1.0,0.538600000000315
381,3,0.5,100.0,1.0,-1,0.0,1.0282000000001972
382,3,0.2,100.0,-1.0,-1,1.0,0.4026000000003478
383,3,0.5,50.0,1.0,-1,0.0,1.8149999999995998
384,3,0.1,50.0,1.0,-1,0.0,1.6718999999998232
385,3,0.1,50.0,1.0,-1,0.0,5.058599999999842
386,3,0.1,50.0,1.0,-1,0.0,3.7727999999997337
387,3,0.1,50.0,-1.0,-1,1.0,0.7256000000002132
388,3,0.5,50.0,1.0,1,1.0,0.3426990000002661
389,3,0.5,100.0,-1.0,-1,1.0,0.5990000000001601
390,3,0.5,100.0,-1.0,-1,1.0,0.6068999999997686
391,3,0.5,100.0,1.0,1,1.0,9.215900000000147
392,3,0.5,50.0,-1.0,-1,1.0,0.7662999999997737
393,3,0.5,100.0,1.0,-1,0.0,10.29950000000008
394,3,0.2,100.0,1.0,1,1.0,0.27340000000003783
395,3,0.5,100.0,1.0,-1,0.0,1.4297999999998865
396,3,0.3,100.0,1.0,-1,0.0,0.5042999999996027
397,3,0.3,100.0,1.0,-1,0.0,0.48339999999961947
398,3,0.3,100.0,1.0,-1,0.0,0.37750000000005457
399,3,0.2,100.0,1.0,1,1.0,0.22689999999965949
400,3,0.5,100.0,1.0,-1,0.0,0.5774000000001251
401,3,0.3,100.0,1.0,-1,0.0,21.353799999999865
402,3,0.2,100.0,-1.0,-1,1.0,1.3213000000000648
403,3,0.5,50.0,1.0,-1,0.0,0.177599999999984
404,3,0.2,50.0,-1.0,-1,1.0,0.7786999999998443
405,3,0.5,100.0,1.0,-1,0.0,0.5810999999994237
406,3,0.1,100.0,1.0,1,1.0,0.13269999999965876
407,3,0.5,50.0,1.0,-1,0.0,0.4178999999999178
408,3,0.2,50.0,1.0,-1,0.0,0.822400000000016
409,3,0.2,50.0,1.0,-1,0.0,0.4946999999997388
410,3,0.1,50.0,1.0,-1,0.0,0.6287000000002081
411,3,0.1,50.0,1.0,-1,0.0,0.6314999999995052
412,3,0.1,50.0,1.0,1,1.0,0.3188999999997577
413,3,0.5,100.0,1.0,-1,0.0,1.0248999999998887
414,3,0.2,100.0,-1.0,-1,1.0,0.7360000000003311
415,3,0.5,100.0,-1.0,-1,1.0,0.8485000000000582
416,3,0.5,50.0,-1.0,-1,1.0,0.4226999999996224
417,3,0.5,50.0,1.0,1,1.0,0.33209999999962747
418,3,0.5,100.0,1.0,-1,0.0,0.8859999999999673
419,3,0.2,100.0,1.0,-1,0.0,0.9323999999996886
420,3,0.2,100.0,1.0,-1,0.0,0.5432999999993626
421,3,0.2,100.0,-1.0,-1,1.0,0.9890999999997803
422,3,0.5,100.0,1.0,-1,0.0,1.7200999999995474
423,3,0.1,100.0,1.0,1,1.0,0.3292999999998756
424,3,0.5,100.0,-1.0,1,0.0,1.7838000000001557
425,3,0.3,100.0,1.0,-1,0.0,1.1226999999998952
426,3,0.3,100.0,1.0,-1,0.0,0.6196999999997388
427,3,0.3,100.0,1.0,1,1.0,5.953100000000177
428,3,0.5,50.0,1.0,-1,0.0,18.937099999999646
429,3,0.3,50.0,1.0,-1,0.0,0.7167999999996937
430,3,0.3,50.0,-1.0,-1,1.0,0.6503999999999905
431,3,0.5,100.0,-1.0,-1,1.0,0.7272000000002663
432,3,0.5,100.0,1.0,-1,0.0,11.070799999999963
433,3,0.3,100.0,1.0,-1,0.0,0.4772999999995591
434,3,0.2,100.0,1.0,-1,0.0,7.728599999999915
435,3,0.1,100.0,1.0,-1,0.0,0.8542999999999665
436,3,0.1,100.0,1.0,-1,0.0,0.564600000000155
437,3,0.1,100.0,1.0,1,1.0,0.421100000000024
438,3,0.5,100.0,1.0,-1,0.0,0.9822999999996682
439,3,0.1,100.0,1.0,-1,0.0,4.534599999999955
440,3,0.1,100.0,1.0,-1,0.0,0.4722999999999047
441,3,0.1,100.0,1.0,-1,0.0,0.9847999999997228
442,3,0.1,100.0,1.0,-1,0.0,0.6754000000000815
443,3,0.1,100.0,1.0,1,1.0,7.141700000000128
444,3,0.5,50.0,1.0,-1,0.0,0.8823999999999614
445,3,0.2,50.0,1.0,1,1.0,0.3119999999994434
446,3,0.5,50.0,-1.0,-1,1.0,1.1756000000000313
447,3,0.5,50.0,1.0,-1,0.0,0.6655000000000655
448,3,0.2,50.0,1.0,-1,0.0,16.47649999999976
449,3,0.2,50.0,-1.0,-1,1.0,0.7893999999996595
450,3,0.5,50.0,1.0,-1,0.0,2.1205999999997402
451,3,0.2,50.0,-1.0,-1,1.0,1.1860999999998967
452,3,0.5,100.0,1.0,-1,0.0,0.44020000000000437
453,3,0.2,100.0,-1.0,-1,1.0,0.6196999999997388
454,3,0.5,100.0,-1.0,-1,1.0,0.4932999999996355
455,3,0.5,100.0,1.0,-1,0.0,1.3297999999999774
456,3,0.0,100.0,1.0,-1,0.0,0.5466999999998734
457,3,0.0,100.0,1.0,-1,0.0,0.3932999999997264
458,3,0.0,100.0,1.0,-1,0.0,0.440900000000056
459,3,0.0,100.0,-1.0,-1,1.0,0.9667999999996937
460,3,0.5,50.0,1.0,-1,0.0,0.6374999999998181
461,3,0.0,50.0,1.0,1,1.0,0.2905000000000655
462,3,0.5,50.0,1.0,-1,0.0,3.6545000000000982
463,3,0.1,50.0,1.0,-1,0.0,0.6040000000002692
464,3,0.1,50.0,-1.0,1,0.0,0.26789999999982683
465,3,0.2,50.0,-1.0,-1,1.0,0.5073999999999614
466,3,0.5,50.0,1.0,-1,0.0,1.8483000000001084
467,3,0.2,50.0,-1.0,-1,1.0,5.744299999999839
468,3,0.5,100.0,1.0,1,1.0,0.24109999999973297
469,3,0.5,50.0,-1.0,-1,1.0,0.40109999999958745
470,3,0.5,100.0,-1.0,-1,1.0,14.342399999999998
471,3,0.5,100.0,-1.0,-1,1.0,0.561500000000251
472,3,0.5,50.0,-1.0,-1,1.0,9.642499000000043
473,3,0.5,100.0,-1.0,-1,1.0,1.2883999999999105
474,3,0.5,100.0,1.0,-1,0.0,3.0493999999998778
475,3,0.1,100.0,-1.0,-1,1.0,0.7520999999997002
476,3,0.5,50.0,1.0,-1,0.0,5.955799999999726
477,3,0.1,50.0,-1.0,-1,1.0,0.3789000000001579
478,3,0.5,50.0,1.0,-1,0.0,0.462800000000243
479,3,0.0,50.0,1.0,-1,0.0,0.4822999999996682
480,3,0.0,50.0,1.0,-1,0.0,11.21349999999984
481,3,0.0,50.0,1.0,-1,0.0,9.915999999999713
482,3,0.0,50.0,-1.0,-1,1.0,0.4904999999998836
483,3,0.5,100.0,1.0,-1,0.0,2.612999999999829
484,3,0.0,100.0,1.0,-1,0.0,0.4905999999996311
485,3,0.0,100.0,-1.0,-1,1.0,0.4966999999996915
486,3,0.5,100.0,1.0,-1,0.0,4.413901000000351
487,3,0.0,100.0,1.0,-1,0.0,7.826900999999907
488,3,0.0,100.0,1.0,1,1.0,1.9312009999998736
489,3,0.5,50.0,1.0,-1,0.0,0.44060099999978775
490,3,0.1,50.0,-1.0,-1,1.0,0.5241009999999733
491,3,0.5,50.0,1.0,-1,0.0,0.760700999999699
1,4,0.5,100.0,1.0,-1,0.0,0.8061000000000003
2,4,0.9,100.0,-1.0,1,0.0,0.26720000000000077
3,4,0.9,100.0,-1.0,-1,1.0,0.8690999999999995
4,4,0.5,50.0,-1.0,1,0.0,0.29699899999999957
5,4,0.8,50.0,-1.0,1,0.0,0.24249999999999972
6,4,0.8,50.0,-1.0,1,0.0,0.26239999999999597
7,4,0.8,50.0,-1.0,-1,1.0,3.6389999999999993
8,4,0.5,50.0,-1.0,-1,1.0,4.245699999999999
9,4,0.5,50.0,1.0,-1,0.0,0.4318000000000026
10,4,0.5,50.0,-1.0,1,0.0,0.21600000000000108
11,4,0.5,50.0,-1.0,-1,1.0,0.49200000000000443
12,4,0.5,100.0,-1.0,-1,1.0,0.39280000000000115
13,4,0.5,50.0,1.0,-1,0.0,0.5776000000000039
14,4,0.4,50.0,1.0,-1,0.0,1.4194999999999993
15,4,0.3,50.0,-1.0,-1,1.0,0.5618999999999943
16,4,0.5,100.0,1.0,-1,0.0,0.4116999999999962
17,4,0.1,100.0,-1.0,-1,1.0,0.4895999999999958
18,4,0.5,100.0,1.0,-1,0.0,1.8684999999999974
19,4,0.1,100.0,1.0,-1,0.0,0.5031999999999783
20,4,0.1,100.0,1.0,-1,0.0,0.9785999999999859
21,4,0.0,100.0,-1.0,-1,1.0,0.6124999999999972
22,4,0.5,100.0,1.0,1,1.0,0.639899999999983
23,4,0.5,100.0,1.0,-1,0.0,0.42489999999999384
24,4,0.1,100.0,1.0,1,1.0,0.23109999999999786
25,4,0.5,50.0,1.0,-1,0.0,0.35190000000000055
26,4,0.2,50.0,1.0,-1,0.0,2.287700000000001
27,4,0.2,50.0,-1.0,-1,1.0,3.822100000000006
28,4,0.5,50.0,-1.0,-1,1.0,1.4975000000000023
29,4,0.5,100.0,1.0,-1,0.0,0.7225999999999999
30,4,0.2,100.0,-1.0,-1,1.0,0.5210999999999899
31,4,0.5,100.0,-1.0,-1,1.0,2.8158000000000243
32,4,0.5,50.0,-1.0,-1,1.0,1.0203000000000202
33,4,0.5,100.0,1.0,-1,0.0,0.6297000000000139
34,4,0.1,100.0,1.0,1,1.0,0.23510000000001696
35,4,0.5,100.0,1.0,-1,0.0,0.3474999999999966
36,4,0.1,100.0,1.0,-1,0.0,1.2919000000000267
37,4,0.1,100.0,1.0,-1,0.0,0.48059999999998126
38,4,0.1,100.0,1.0,-1,0.0,0.45420000000001437
39,4,0.1,100.0,-1.0,-1,1.0,0.410000000000025
40,4,0.5,50.0,-1.0,1,0.0,0.2560000000000002
41,4,0.2,50.0,1.0,1,1.0,3.2124000000000024
42,4,0.5,100.0,1.0,1,1.0,2.0888000000000204
43,4,0.5,100.0,-1.0,1,0.0,0.25790000000000646
44,4,0.5,100.0,-1.0,-1,1.0,1.5893000000000086
45,4,0.5,50.0,-1.0,1,0.0,0.2516000000000247
46,4,0.5,50.0,-1.0,-1,1.0,1.154200000000003
47,4,0.5,100.0,1.0,1,1.0,0.23670000000001323
48,4,0.5,50.0,1.0,1,1.0,0.23430000000001883
49,4,0.5,100.0,-1.0,-1,1.0,0.4741000000000213
50,4,0.5,100.0,1.0,1,1.0,0.2231000000000165
51,4,0.5,50.0,-1.0,1,0.0,0.510200000000026
52,4,0.7,50.0,1.0,-1,0.0,0.4702000000000055
53,4,0.6,50.0,1.0,1,1.0,0.2317000000000462
54,4,0.5,50.0,-1.0,1,0.0,0.24559999999996762
55,4,0.7,50.0,-1.0,1,0.0,0.30410000000000537
56,4,0.7,50.0,-1.0,-1,1.0,0.47109999999997854
57,4,0.5,50.0,-1.0,1,0.0,0.31989999999996144
58,4,0.7,50.0,-1.0,-1,1.0,0.3675999999999817
59,4,0.5,100.0,-1.0,-1,1.0,0.5724999999999909
60,4,0.5,50.0,-1.0,-1,1.0,0.32960000000002765
61,4,0.5,50.0,-1.0,-1,1.0,0.5339999999999918
62,4,0.5,50.0,1.0,1,1.0,0.2911999999999466
63,4,0.5,100.0,1.0,1,1.0,0.2286999999999466
64,4,0.5,100.0,1.0,1,1.0,0.24630000000001928
65,4,0.5,100.0,-1.0,-1,1.0,0.5176999999999907
66,4,0.5,100.0,-1.0,-1,1.0,0.6641999999999939
67,4,0.5,50.0,-1.0,1,0.0,0.24159999999994852
68,4,0.4,50.0,1.0,-1,0.0,0.5898999999999432
69,4,0.4,50.0,-1.0,1,0.0,0.19149999999996226
70,4,0.5,50.0,1.0,1,1.0,0.23929999999995744
71,4,0.5,50.0,-1.0,-1,1.0,1.7857999999999947
72,4,0.5,100.0,-1.0,1,0.0,0.28750000000002274
73,4,0.6,100.0,-1.0,1,0.0,0.20090000000004693
74,4,0.6,100.0,-1.0,-1,1.0,0.6494999999999322
75,4,0.5,50.0,1.0,-1,0.0,0.5982999999999379
76,4,0.5,50.0,1.0,-1,0.0,0.4039999999999395
77,4,0.5,50.0,1.0,-1,0.0,0.36139999999994643
78,4,0.4,50.0,1.0,-1,0.0,0.6685999999999694
79,4,0.4,50.0,-1.0,1,0.0,0.22690000000000055
80,4,0.4,50.0,-1.0,-1,1.0,0.5699999999999932
81,4,0.5,100.0,1.0,-1,0.0,0.38329999999990605
82,4,0.3,100.0,1.0,-1,0.0,0.6764999999999759
83,4,0.2,100.0,1.0,-1,0.0,0.6544999999999845
84,4,0.1,100.0,1.0,1,1.0,0.2255999999999858
85,4,0.5,50.0,1.0,1,1.0,0.34099999999995134
86,4,0.5,50.0,-1.0,-1,1.0,0.5713000000000079
87,4,0.5,100.0,-1.0,-1,1.0,0.6152000000000157
88,4,0.5,50.0,1.0,-1,0.0,0.406599999999969
89,4,0.3,50.0,1.0,-1,0.0,1.0474999999999568
90,4,0.2,50.0,1.0,-1,0.0,0.4504999999999768
91,4,0.2,50.0,1.0,1,1.0,0.2411000000000172
92,4,0.5,50.0,1.0,-1,0.0,0.5558999999999514
93,4,0.3,50.0,1.0,-1,0.0,0.49699999999995725
94,4,0.3,50.0,1.0,1,1.0,0.2278999999999769
95,4,0.5,100.0,-1.0,1,0.0,0.24269899999995914
96,4,0.3,100.0,-1.0,1,0.0,0.2921999999999798
97,4,0.4,100.0,1.0,-1,0.0,0.9122000000000412
98,4,0.4,100.0,1.0,1,1.0,0.21570000000002665
99,4,0.5,100.0,1.0,-1,0.0,1.0109999999999673
100,4,0.5,100.0,-1.0,-1,1.0,0.4601999999999862
101,4,0.5,100.0,-1.0,1,0.0,0.3598999999999819
102,4,0.5,100.0,-1.0,-1,1.0,0.6757000000000062
103,4,0.5,50.0,-1.0,1,0.0,0.2686999999999671
104,4,0.6,50.0,1.0,1,1.0,0.3291999999999575
105,4,0.5,50.0,-1.0,-1,1.0,0.49219999999996844
106,4,0.5,100.0,-1.0,1,0.0,0.21350000000001046
107,4,0.5,100.0,1.0,-1,0.0,0.9039000000000215
108,4,0.5,100.0,1.0,-1,0.0,0.3916999999999575
109,4,0.4,100.0,1.0,-1,0.0,3.3175999999999704
110,4,0.4,100.0,1.0,-1,0.0,3.1486999999999625
111,4,0.4,100.0,1.0,-1,0.0,4.830999999999904
112,4,0.3,100.0,-1.0,-1,1.0,0.88799999999992
113,4,0.5,50.0,-1.0,-1,1.0,0.6093999999999369
114,4,0.5,100.0,-1.0,-1,1.0,0.6546999999999343
115,4,0.5,100.0,1.0,-1,0.0,0.8042000000000371
116,4,0.1,100.0,1.0,-1,0.0,0.7624999999999318
117,4,0.0,100.0,1.0,-1,0.0,0.5001999999999498
118,4,0.0,100.0,-1.0,-1,1.0,0.4188000000000329
119,4,0.5,100.0,1.0,-1,0.0,0.5279000000000451
120,4,0.0,100.0,1.0,1,1.0,0.22679999999991196
121,4,0.5,100.0,1.0,1,1.0,0.28969999999992524
122,4,0.5,100.0,1.0,-1,0.0,0.6222000000000207
123,4,0.2,100.0,1.0,-1,0.0,0.5844999999999345
124,4,0.2,100.0,1.0,1,1.0,0.21919999999988704
125,4,0.5,100.0,1.0,1,1.0,1.911100000000033
126,4,0.5,50.0,-1.0,1,0.0,1.2690000000000055
127,4,0.5,50.0,-1.0,1,0.0,0.26949999999999363
128,4,0.6,50.0,-1.0,-1,1.0,0.5641000000000531
129,4,0.5,50.0,1.0,1,1.0,0.2949999999998454
130,4,0.5,100.0,-1.0,-1,1.0,3.0779999999999745
131,4,0.5,50.0,-1.0,-1,1.0,0.5728000000000293
132,4,0.5,100.0,1.0,-1,0.0,0.7861999999998943
133,4,0.5,100.0,1.0,-1,0.0,2.706199999999967
134,4,0.5,100.0,-1.0,-1,1.0,0.8432999999999993
135,4,0.5,50.0,-1.0,-1,1.0,0.7545999999998685
136,4,0.5,100.0,-1.0,-1,1.0,0.8682000000000016
137,4,0.5,100.0,-1.0,-1,1.0,0.6699999999999591
138,4,0.5,50.0,-1.0,-1,1.0,0.25339999999994234
139,4,0.5,100.0,1.0,-1,0.0,0.7633999999999332
140,4,0.0,100.0,1.0,1,1.0,0.226099999999974
141,4,0.5,50.0,1.0,1,1.0,2.624400000000037
142,4,0.5,100.0,-1.0,-1,1.0,0.35820000000001073
143,4,0.5,100.0,1.0,-1,0.0,0.5449999999999591
144,4,0.2,100.0,1.0,-1,0.0,15.810399999999959
145,4,0.2,100.0,1.0,-1,0.0,0.4978990000000749
146,4,0.2,100.0,1.0,1,1.0,1.7794999999999845
147,4,0.5,100.0,1.0,1,1.0,0.23839999999995598
148,4,0.5,100.0,1.0,1,1.0,0.2703989999999976
149,4,0.5,100.0,-1.0,1,0.0,0.920099999999934
150,4,0.6,100.0,1.0,1,1.0,2.5045000000000073
151,4,0.5,100.0,1.0,-1,0.0,0.7578000000000884
152,4,0.5,100.0,-1.0,1,0.0,0.23509999999987485
153,4,0.6,100.0,-1.0,-1,1.0,0.5436999999999443
154,4,0.5,100.0,-1.0,1,0.0,0.1368999999999687
155,4,0.7,100.0,-1.0,1,0.0,0.3162999999999556
156,4,0.8,100.0,1.0,-1,0.0,0.47089999999991505
157,4,0.7,100.0,-1.0,1,0.0,0.938799999999901
158,4,0.7,100.0,-1.0,1,0.0,1.1487999999999374
159,4,0.7,100.0,1.0,-1,0.0,2.8555999999999813
160,4,0.6,100.0,-1.0,-1,1.0,0.6055000000000064
161,4,0.5,100.0,1.0,1,1.0,0.22030000000006567
162,4,0.5,50.0,1.0,1,1.0,0.2764999999999418
163,4,0.5,50.0,1.0,1,1.0,0.26729999999997744
164,4,0.5,50.0,1.0,-1,0.0,0.5253000000000156
165,4,0.6,50.0,1.0,1,1.0,0.3228000000000293
166,4,0.5,100.0,-1.0,1,0.0,0.26710000000002765
167,4,0.7,100.0,1.0,1,1.0,0.3170999999998685
168,4,0.5,100.0,1.0,1,1.0,0.20329999999989923
169,4,0.5,100.0,-1.0,-1,1.0,0.7053000000000793
170,4,0.5,100.0,1.0,1,1.0,0.25130000000001473
171,4,0.5,50.0,-1.0,-1,1.0,0.4676999999999225
172,4,0.5,100.0,-1.0,-1,1.0,0.6719000000000506
173,4,0.5,100.0,1.0,1,1.0,0.20870000000002165
174,4,0.5,50.0,1.0,-1,0.0,1.3000999999999294
175,4,0.6,50.0,-1.0,-1,1.0,0.5260999999999285
176,4,0.5,100.0,1.0,-1,0.0,0.4109999999999445
177,4,0.4,100.0,-1.0,1,0.0,0.21510000000000673
178,4,0.4,100.0,-1.0,1,0.0,0.29750000000001364
179,4,0.4,100.0,1.0,1,1.0,0.48699999999996635
180,4,0.5,50.0,1.0,-1,0.0,0.6238999999999351
181,4,0.4,50.0,-1.0,-1,1.0,0.7461999999999307
182,4,0.5,50.0,1.0,-1,0.0,0.70799999999997
183,4,0.4,50.0,1.0,1,1.0,0.26929999999993015
184,4,0.5,50.0,1.0,1,1.0,0.19230000000004566
185,4,0.5,100.0,1.0,-1,0.0,0.5901000000000067
186,4,0.5,100.0,-1.0,1,0.0,0.22949999999991633
187,4,0.6,100.0,-1.0,-1,1.0,1.0401000000000522
188,4,0.5,50.0,-1.0,1,0.0,0.23090000000001965
189,4,0.5,50.0,1.0,-1,0.0,0.3713000000000193
190,4,0.4,50.0,-1.0,1,0.0,0.20249999999998636
191,4,0.5,50.0,1.0,-1,0.0,0.4592999999999847
192,4,0.5,50.0,1.0,-1,0.0,0.9951999999999543
193,4,0.5,50.0,1.0,1,1.0,0.23929999999995744
194,4,0.5,100.0,-1.0,-1,1.0,1.1035000000000537
195,4,0.5,50.0,-1.0,-1,1.0,0.6702990000001137
196,4,0.5,100.0,1.0,-1,0.0,0.75100000000009
197,4,0.3,100.0,1.0,1,1.0,0.22469999999998436
198,4,0.5,100.0,1.0,-1,0.0,0.5451000000000477
199,4,0.3,100.0,1.0,1,1.0,0.27929999999992106
200,4,0.5,50.0,1.0,-1,0.0,0.6377999999999702
201,4,0.3,50.0,-1.0,1,0.0,0.24670000000003256
202,4,0.4,50.0,1.0,1,1.0,2.0611000000000104
203,4,0.5,100.0,-1.0,1,0.0,0.27539999999987685
204,4,0.5,100.0,1.0,-1,0.0,0.40430000000003474
205,4,0.5,100.0,1.0,1,1.0,0.2583999999999378
206,4,0.5,50.0,1.0,1,1.0,0.28489999999999327
207,4,0.5,100.0,-1.0,-1,1.0,1.1096999999998616
208,4,0.5,50.0,1.0,-1,0.0,0.6842000000000326
209,4,0.6,50.0,-1.0,-1,1.0,0.7695999999999685
210,4,0.5,100.0,-1.0,1,0.0,0.27539999999987685
211,4,0.6,100.0,1.0,-1,0.0,0.8048989999999776
212,4,0.5,100.0,-1.0,-1,1.0,0.778899000000024
213,4,0.5,100.0,-1.0,1,0.0,0.22860000000002856
214,4,0.4,100.0,-1.0,-1,1.0,0.6590999999999667
215,4,0.5,100.0,-1.0,1,0.0,0.21149999999977354
216,4,0.4,100.0,1.0,1,1.0,0.1958999999999378
217,4,0.5,50.0,-1.0,-1,1.0,0.20830000000000837
218,4,0.5,50.0,-1.0,-1,1.0,0.5459999999998217
219,4,0.5,50.0,1.0,-1,0.0,0.44559899999990193
220,4,0.4,50.0,-1.0,1,0.0,7.156099999999924
221,4,0.4,50.0,-1.0,1,0.0,0.25850000000014006
222,4,0.5,50.0,-1.0,-1,1.0,3.8230999999998403
223,4,0.5,50.0,1.0,1,1.0,0.23230000000012296
224,4,0.5,100.0,1.0,1,1.0,0.14679999999975735
225,4,0.5,50.0,-1.0,-1,1.0,1.2496000000001004
226,4,0.5,50.0,-1.0,-1,1.0,0.440199999999777
227,4,0.5,100.0,1.0,-1,0.0,0.4955999999999676
228,4,0.4,100.0,1.0,-1,0.0,0.4370000000001255
229,4,0.4,100.0,1.0,-1,0.0,0.8069000000000415
230,4,0.4,100.0,1.0,-1,0.0,1.3739000000000487
231,4,0.3,100.0,-1.0,-1,1.0,0.6427000000001044
232,4,0.5,50.0,1.0,-1,0.0,1.1041000000000167
233,4,0.2,50.0,1.0,-1,0.0,2.350400000000036
234,4,0.1,50.0,1.0,-1,0.0,3.0575999999998658
235,4,0.0,50.0,1.0,1,1.0,0.24330000000009022
236,4,0.5,100.0,1.0,1,1.0,0.2579000000000633
237,4,0.5,100.0,1.0,1,1.0,0.2300999999999931
238,4,0.5,100.0,-1.0,-1,1.0,0.6548000000000229
239,4,0.5,50.0,1.0,-1,0.0,0.6434000000001561
240,4,0.3,50.0,1.0,1,1.0,0.5381000000002132
241,4,0.5,100.0,1.0,-1,0.0,0.5834999999999582
242,4,0.4,100.0,-1.0,-1,1.0,12.47160000000008
243,4,0.5,100.0,-1.0,-1,1.0,0.48730000000000473
244,4,0.5,100.0,-1.0,-1,1.0,0.23860000000013315
245,4,0.5,100.0,1.0,1,1.0,0.23129999999991924
246,4,0.5,100.0,-1.0,-1,1.0,0.19539899999995214
247,4,0.5,50.0,1.0,1,1.0,0.38400000000001455
248,4,0.5,100.0,-1.0,1,0.0,0.4023989999998321
249,4,0.4,100.0,1.0,1,1.0,0.3207999999999629
250,4,0.5,50.0,-1.0,1,0.0,0.25909999999998945
251,4,0.5,50.0,-1.0,1,0.0,0.13830000000007203
252,4,0.6,50.0,1.0,1,1.0,0.2361999999998261
253,4,0.5,100.0,1.0,1,1.0,0.30780000000004293
254,4,0.5,50.0,-1.0,-1,1.0,0.7093999999999596
255,4,0.5,50.0,1.0,-1,0.0,0.511299999999892
256,4,0.7,50.0,-1.0,-1,1.0,0.5496000000000549
257,4,0.5,50.0,1.0,-1,0.0,0.6684999999999945
258,4,0.6,50.0,-1.0,-1,1.0,0.6498000000001412
259,4,0.5,100.0,1.0,-1,0.0,0.6983999999999924
260,4,0.4,100.0,1.0,-1,0.0,0.8665999999998348
261,4,0.3,100.0,-1.0,-1,1.0,0.5247999999999138
262,4,0.5,100.0,-1.0,-1,1.0,0.9401000000000295
263,4,0.5,100.0,-1.0,-1,1.0,0.6421989999998914
264,4,0.5,50.0,1.0,-1,0.0,0.4902999999999338
265,4,0.0,50.0,1.0,-1,0.0,0.4191000000000713
266,4,0.0,50.0,1.0,-1,0.0,0.4272999999998319
267,4,0.0,50.0,1.0,-1,0.0,2.7788000000000466
268,4,0.0,50.0,1.0,-1,0.0,0.3472999999999047
269,4,0.0,50.0,1.0,-1,0.0,0.5356000000001586
270,4,0.0,50.0,1.0,1,1.0,0.24410000000011678
271,4,0.5,50.0,1.0,1,1.0,0.22240000000010696
272,4,0.5,50.0,1.0,-1,0.0,0.7576999999998861
273,4,0.2,50.0,1.0,-1,0.0,0.8494000000000597
274,4,0.2,50.0,-1.0,-1,1.0,2.5914000000000215
275,4,0.5,100.0,1.0,-1,0.0,0.23659999999995307
276,4,0.2,100.0,1.0,-1,0.0,1.151399999999967
277,4,0.2,100.0,1.0,1,1.0,4.220100000000002
278,4,0.5,100.0,1.0,-1,0.0,0.5448999999998705
279,4,0.3,100.0,-1.0,-1,1.0,0.5837999999998829
280,4,0.5,50.0,1.0,-1,0.0,0.4583999999997559
281,4,0.2,50.0,1.0,-1,0.0,1.31450000000018
282,4,0.1,50.0,-1.0,-1,1.0,0.5353000000000065
283,4,0.5,100.0,1.0,-1,0.0,0.6504999999999654
284,4,0.1,100.0,1.0,1,1.0,0.6485999999999876
285,4,0.5,100.0,1.0,-1,0.0,0.5467999999998483
286,4,0.2,100.0,1.0,-1,0.0,0.5489999999997508
287,4,0.2,100.0,1.0,-1,0.0,0.6667999999999665
288,4,0.1,100.0,1.0,-1,0.0,0.6724999999999
289,4,0.1,100.0,1.0,-1,0.0,0.6039989999999307
290,4,0.1,100.0,1.0,-1,0.0,0.525899999999865
291,4,0.1,100.0,1.0,1,1.0,0.23080000000004475
292,4,0.5,100.0,1.0,1,1.0,0.32940000000007785
293,4,0.5,50.0,1.0,-1,0.0,0.6739000000000033
294,4,0.3,50.0,1.0,1,1.0,0.23959999999988213
295,4,0.5,50.0,1.0,-1,0.0,0.5040000000001328
296,4,0.3,50.0,1.0,-1,0.0,0.6428999999998268
297,4,0.3,50.0,1.0,-1,0.0,3.144700000000057
298,4,0.3,50.0,1.0,1,1.0,8.986599999999953
299,4,0.5,100.0,-1.0,-1,1.0,0.33809999999994034
300,4,0.5,50.0,-1.0,-1,1.0,0.4736000000000331
301,4,0.5,100.0,1.0,-1,0.0,4.015299999999797
302,4,0.3,100.0,1.0,-1,0.0,0.6139000000000578
303,4,0.2,100.0,-1.0,1,0.0,0.2582999999997355
304,4,0.3,100.0,1.0,1,1.0,3.814000000000078
305,4,0.5,100.0,1.0,-1,0.0,0.8484000000000833
306,4,0.3,100.0,1.0,1,1.0,0.2642000000000735
307,4,0.5,100.0,1.0,-1,0.0,1.33849999999984
308,4,0.4,100.0,1.0,1,1.0,0.23099999999999454
309,4,0.5,100.0,-1.0,-1,1.0,0.5190999999999804
310,4,0.5,100.0,-1.0,1,0.0,0.13109999999983302
311,4,0.5,100.0,1.0,-1,0.0,0.425899999999956
312,4,0.5,100.0,1.0,1,1.0,0.11479899999994814
313,4,0.5,100.0,1.0,1,1.0,0.2295000000001437
314,4,0.5,100.0,1.0,1,1.0,0.2181989999999132
315,4,0.5,50.0,1.0,1,1.0,0.2361999999998261
316,4,0.5,50.0,1.0,1,1.0,0.29150000000004184
317,4,0.5,100.0,-1.0,-1,1.0,0.6333000000001903
318,4,0.5,100.0,1.0,1,1.0,0.2584999999999127
319,4,0.5,50.0,1.0,-1,0.0,0.4299999999998363
320,4,0.7,50.0,-1.0,-1,1.0,0.42849999999998545
321,4,0.5,50.0,-1.0,-1,1.0,3.5271000000000186
322,4,0.5,50.0,-1.0,-1,1.0,0.18210000000021864
323,4,0.5,50.0,1.0,-1,0.0,2.220199999999977
324,4,0.4,50.0,-1.0,-1,1.0,1.292299999999841
325,4,0.5,100.0,1.0,-1,0.0,0.4034999999998945
326,4,0.2,100.0,-1.0,-1,1.0,3.5060000000000855
327,4,0.5,50.0,1.0,1,1.0,1.077099999999973
328,4,0.5,100.0,1.0,1,1.0,0.2563000000000102
329,4,0.5,100.0,1.0,1,1.0,0.33740000000011605
330,4,0.5,50.0,-1.0,-1,1.0,0.3630999999998039
331,4,0.5,100.0,-1.0,1,0.0,0.27899999999999636
332,4,0.4,100.0,-1.0,-1,1.0,0.4800999999999931
333,4,0.5,100.0,-1.0,-1,1.0,0.5920999999998457
334,4,0.5,100.0,1.0,-1,0.0,0.8468000000000302
335,4,0.4,100.0,-1.0,1,0.0,0.2417000000000371
336,4,0.5,100.0,1.0,-1,0.0,0.6102000000000771
337,4,0.5,100.0,-1.0,1,0.0,2.9446000000000367
338,4,0.5,100.0,1.0,1,1.0,0.28710000000000946
339,4,0.5,50.0,1.0,-1,0.0,0.8613999999997759
340,4,0.4,50.0,1.0,-1,0.0,0.5640000000000782
341,4,0.4,50.0,1.0,1,1.0,0.6686999999999443
342,4,0.5,100.0,1.0,1,1.0,0.3207999999997355
343,4,0.5,50.0,1.0,-1,0.0,0.6759010000000671
344,4,0.5,50.0,-1.0,-1,1.0,1.2077009999998154
345,4,0.5,100.0,-1.0,-1,1.0,0.3928009999999631
346,4,0.5,50.0,1.0,-1,0.0,0.5746010000000297
347,4,0.4,50.0,-1.0,-1,1.0,0.5128010000000813
348,4,0.5,100.0,-1.0,1,0.0,0.2914009999999507
349,4,0.3,100.0,1.0,-1,0.0,0.43570100000010825
350,4,0.3,100.0,1.0,-1,0.0,0.601500999999871
351,4,0.3,100.0,-1.0,-1,1.0,0.7729010000000471
352,4,0.5,50.0,1.0,-1,0.0,0.5818010000000413
353,4,0.1,50.0,-1.0,-1,1.0,0.7035009999999602
354,4,0.5,100.0,1.0,1,1.0,0.2419009999998707
355,4,0.5,50.0,-1.0,-1,1.0,0.5764010000000326
356,4,0.5,50.0,-1.0,-1,1.0,0.6087009999998827
357,4,0.5,50.0,1.0,-1,0.0,0.6368009999998776
358,4,0.2,50.0,1.0,1,1.0,0.19229999999993197
359,4,0.5,50.0,-1.0,-1,1.0,0.6070009999998547
360,4,0.5,100.0,1.0,-1,0.0,0.5123009999997521
361,4,0.2,100.0,-1.0,-1,1.0,0.6798009999999977
362,4,0.5,100.0,1.0,-1,0.0,0.6258009999999103
363,4,0.2,100.0,-1.0,-1,1.0,0.5275009999998019
364,4,0.5,50.0,1.0,-1,0.0,0.4794010000000526
365,4,0.1,50.0,1.0,1,1.0,0.3204009999999471
366,4,0.5,100.0,1.0,-1,0.0,1.029500999999982
367,4,0.2,100.0,1.0,-1,0.0,0.4771010000001752
368,4,0.2,100.0,-1.0,-1,1.0,0.8697010000000773
369,4,0.5,100.0,1.0,1,1.0,0.2114009999997961
370,4,0.5,50.0,1.0,-1,0.0,0.5332009999999627
371,4,0.2,50.0,1.0,-1,0.0,0.46790099999998347
372,4,0.2,50.0,1.0,-1,0.0,0.46010100000012244
373,4,0.2,50.0,1.0,1,1.0,0.23420099999998456
374,4,0.5,100.0,-1.0,-1,1.0,0.5336010000000897
375,4,0.5,100.0,1.0,-1,0.0,0.7319009999998798
376,4,0.2,100.0,1.0,1,1.0,0.27050099999996746
377,4,0.5,50.0,1.0,-1,0.0,0.5417009999998754
378,4,0.3,50.0,1.0,-1,0.0,0.41390099999989616
379,4,0.3,50.0,1.0,-1,0.0,0.5152009999999336
380,4,0.2,50.0,1.0,1,1.0,0.23070099999995364
381,4,0.5,100.0,1.0,1,1.0,0.261801000000105
382,4,0.5,50.0,-1.0,-1,1.0,0.7009009999999307
383,4,0.5,50.0,-1.0,-1,1.0,0.5090009999998983
384,4,0.5,100.0,1.0,-1,0.0,0.3245010000000548
385,4,0.3,100.0,1.0,1,1.0,0.19960100000002967
386,4,0.5,50.0,-1.0,-1,1.0,0.4478009999997994
387,4,0.5,100.0,1.0,-1,0.0,0.5490010000000893
388,4,0.3,100.0,1.0,1,1.0,0.2779009999999289
389,4,0.5,50.0,1.0,1,1.0,0.26230099999997947
390,4,0.5,50.0,1.0,-1,0.0,0.5781009999998332
391,4,0.4,50.0,1.0,1,1.0,0.3060010000001512
392,4,0.5,100.0,-1.0,-1,1.0,0.4249010000000908
393,4,0.5,100.0,1.0,-1,0.0,0.5030009999998128
394,4,0.4,100.0,1.0,-1,0.0,0.46870099999978265
395,4,0.4,100.0,1.0,1,1.0,0.21980099999996128
396,4,0.5,100.0,-1.0,-1,1.0,0.5487009999999373
397,4,0.5,50.0,-1.0,-1,1.0,0.6633009999998194
398,4,0.5,100.0,-1.0,-1,1.0,0.6455009999999675
399,4,0.5,100.0,-1.0,-1,1.0,0.4733009999999922
400,4,0.5,100.0,1.0,-1,0.0,0.6057009999999536
401,4,0.2,100.0,1.0,-1,0.0,0.44680099999982303
402,4,0.1,100.0,1.0,1,1.0,0.19250099999999293
403,4,0.5,100.0,1.0,1,1.0,0.26030100000025413
404,4,0.5,100.0,-1.0,-1,1.0,0.442801000000145
405,4,0.5,100.0,-1.0,1,0.0,0.23040100000025632
406,4,0.3,100.0,1.0,-1,0.0,0.7828010000000631
407,4,0.3,100.0,1.0,-1,0.0,0.6718009999999595
408,4,0.3,100.0,1.0,1,1.0,0.29290100000002894
409,4,0.5,50.0,1.0,-1,0.0,0.6082010000000082
410,4,0.4,50.0,1.0,1,1.0,2.9798010000001796
411,4,0.5,100.0,1.0,-1,0.0,0.6411009999999351
412,4,0.5,100.0,1.0,-1,0.0,0.4434009999999944
413,4,0.4,100.0,-1.0,-1,1.0,0.30759999999986576
414,4,0.5,50.0,1.0,-1,0.0,0.6971009999999751
415,4,0.3,50.0,1.0,-1,0.0,0.5321010000000115
416,4,0.2,50.0,1.0,-1,0.0,0.42049999999994725
417,4,0.2,50.0,-1.0,-1,1.0,0.46830100000011043
418,4,0.5,100.0,1.0,-1,0.0,1.2473009999998794
419,4,0.1,100.0,1.0,-1,0.0,0.6685009999998783
420,4,0.1,100.0,1.0,1,1.0,2.667400999999927
421,4,0.5,100.0,1.0,1,1.0,0.26280100000008133
422,4,0.5,50.0,1.0,-1,0.0,0.46430099999997765
423,4,0.2,50.0,1.0,-1,0.0,0.6792009999996935
424,4,0.2,50.0,1.0,-1,0.0,0.5180010000003676
425,4,0.2,50.0,-1.0,1,0.0,0.2424010000004273
426,4,0.3,50.0,-1.0,-1,1.0,1.248101000000588
427,4,0.5,100.0,1.0,-1,0.0,0.3497010000000955
428,4,0.3,100.0,-1.0,-1,1.0,0.6315010000002985
429,4,0.5,50.0,1.0,-1,0.0,14.409601000000293
430,4,0.3,50.0,1.0,-1,0.0,0.3453010000002905
431,4,0.2,50.0,1.0,-1,0.0,6.206301000000167
432,4,0.1,50.0,-1.0,1,0.0,0.2956010000002607
433,4,0.2,50.0,-1.0,-1,1.0,20.029801000000134
434,4,0.5,100.0,-1.0,-1,1.0,0.6232010000003356
435,4,0.5,50.0,-1.0,-1,1.0,0.6909010000003946
436,4,0.5,100.0,-1.0,1,0.0,0.2731010000002243
437,4,0.2,100.0,1.0,-1,0.0,0.5141010000002098
438,4,0.2,100.0,1.0,-1,0.0,0.3899010000004637
439,4,0.2,100.0,1.0,-1,0.0,0.587601000000177
440,4,0.2,100.0,1.0,-1,0.0,2.8502010000001974
441,4,0.2,100.0,1.0,-1,0.0,0.5833010000005743
442,4,0.2,100.0,1.0,1,1.0,0.44700100000045495
443,4,0.5,100.0,1.0,1,1.0,0.9983010000000831
444,4,0.5,50.0,1.0,-1,0.0,0.45710100000042075
445,4,0.3,50.0,1.0,-1,0.0,0.5550010000001748
446,4,0.3,50.0,1.0,-1,0.0,0.4206010000002607
447,4,0.2,50.0,1.0,-1,0.0,1.6287010000000919
448,4,0.2,50.0,1.0,-1,0.0,1.6208010000004833
449,4,0.2,50.0,1.0,-1,0.0,0.9556010000001152
450,4,0.2,50.0,-1.0,-1,1.0,0.5944010000002891
451,4,0.5,50.0,-1.0,-1,1.0,0.4914010000002236
452,4,0.5,50.0,1.0,1,1.0,0.45140100000025996
453,4,0.5,100.0,1.0,-1,0.0,0.3558010000001559
454,4,0.1,100.0,1.0,-1,0.0,0.5479010000003655
455,4,0.1,100.0,1.0,-1,0.0,0.3960010000000693
456,4,0.1,100.0,1.0,-1,0.0,3.1115010000003167
457,4,0.1,100.0,1.0,-1,0.0,0.6960009999997965
458,4,0.1,100.0,-1.0,-1,1.0,0.44170100000019374
459,4,0.5,100.0,1.0,1,1.0,0.26290100000005623
460,4,0.5,50.0,-1.0,1,0.0,0.21520100000043385
461,4,0.3,50.0,1.0,-1,0.0,0.43970100000024104
462,4,0.3,50.0,1.0,-1,0.0,0.47870100000000093
463,4,0.2,50.0,1.0,-1,0.0,0.3969010000000708
464,4,0.2,50.0,1.0,1,1.0,0.2788010000003851
465,4,0.5,50.0,1.0,-1,0.0,0.560001000000284
466,4,0.3,50.0,1.0,1,1.0,0.24570100000028106
467,4,0.5,100.0,-1.0,-1,1.0,0.24400100000002567
468,4,0.5,50.0,1.0,-1,0.0,0.5625009999998838
469,4,0.4,50.0,-1.0,-1,1.0,0.5856010000002243
470,4,0.5,100.0,-1.0,-1,1.0,0.5927010000000337
471,4,0.5,50.0,1.0,1,1.0,0.2879010000001472
472,4,0.5,50.0,1.0,-1,0.0,0.4160010000005059
473,4,0.3,50.0,1.0,-1,0.0,0.30400100000042585
474,4,0.3,50.0,1.0,-1,0.0,0.3097010000001319
475,4,0.2,50.0,1.0,-1,0.0,0.4387010000000373
476,4,0.2,50.0,1.0,1,1.0,0.1965010000003531
477,4,0.5,50.0,1.0,1,1.0,0.34360100000003513
478,4,0.5,100.0,-1.0,-1,1.0,0.6766010000005735
479,4,0.5,50.0,1.0,-1,0.0,0.4747010000000955
480,4,0.3,50.0,1.0,1,1.0,0.32030100000019956
481,4,0.5,100.0,-1.0,1,0.0,0.29910100000006423
482,4,0.4,100.0,1.0,1,1.0,0.213701000000583
483,4,0.5,100.0,-1.0,1,0.0,0.2719010000000708
484,4,0.6,100.0,-1.0,-1,1.0,0.5005009999999857
485,4,0.5,100.0,-1.0,-1,1.0,0.5307010000001355
486,4,0.5,100.0,1.0,1,1.0,0.21070100000042657
487,4,0.5,100.0,1.0,-1,0.0,0.49860000000035143
488,4,0.5,100.0,1.0,1,1.0,0.2274000000002161
489,4,0.5,100.0,1.0,1,1.0,0.21620100000018283
490,4,0.5,50.0,-1.0,-1,1.0,2.2509009999998852
491,4,0.5,100.0,-1.0,-1,1.0,0.48910100000057355
492,4,0.5,50.0,-1.0,-1,1.0,0.4812010000000555
493,4,0.5,100.0,1.0,-1,0.0,0.6163010000000213
494,4,0.3,100.0,-1.0,-1,1.0,0.4281010000004244
495,4,0.5,100.0,1.0,1,1.0,0.2935000000002219
496,4,0.5,100.0,-1.0,-1,1.0,0.7250010000002476
497,4,0.5,100.0,-1.0,1,0.0,0.21710100000018429
498,4,0.4,100.0,1.0,-1,0.0,0.45860099999981685
499,4,0.3,100.0,1.0,1,1.0,0.34700100000009115
500,4,0.5,100.0,1.0,-1,0.0,0.5621009999999842
501,4,0.3,100.0,1.0,-1,0.0,0.46740100000033635
502,4,0.3,100.0,1.0,-1,0.0,0.4021010000001297
503,4,0.3,100.0,1.0,-1,0.0,0.7872010000000955
504,4,0.3,100.0,-1.0,1,0.0,0.41890100000046004
505,4,0.4,100.0,-1.0,-1,1.0,0.5211010000002716
506,4,0.5,100.0,1.0,-1,0.0,0.5625009999998838
507,4,0.3,100.0,-1.0,1,0.0,0.23460100000011153
508,4,0.3,100.0,1.0,-1,0.0,0.48930100000052335
509,4,0.3,100.0,1.0,1,1.0,0.28420100000039383
510,4,0.5,50.0,1.0,-1,0.0,0.6696010000005117
511,4,0.3,50.0,1.0,1,1.0,0.21130100000027596
512,4,0.5,100.0,1.0,1,1.0,0.27630100000033053
513,4,0.5,50.0,-1.0,-1,1.0,0.5178009999999631
514,4,0.5,100.0,1.0,-1,0.0,7.846701000000394
515,4,0.4,100.0,-1.0,-1,1.0,0.4313999999999396
516,4,0.5,100.0,1.0,-1,0.0,0.7802010000004884
517,4,0.4,100.0,-1.0,-1,1.0,0.7021009999998569
518,4,0.5,100.0,1.0,1,1.0,0.21030100000007224
519,4,0.5,50.0,1.0,-1,0.0,0.6286009999998896
520,4,0.3,50.0,-1.0,-1,1.0,0.6038000000003194
521,4,0.5,100.0,1.0,-1,0.0,0.8653010000002723
522,4,0.2,100.0,1.0,-1,0.0,0.4740010000004986
523,4,0.1,100.0,1.0,-1,0.0,0.4488010000000031
524,4,0.1,100.0,1.0,1,1.0,0.4074010000003909
525,4,0.5,50.0,1.0,-1,0.0,0.7024010000004637
526,4,0.2,50.0,-1.0,1,0.0,0.26760100000046805
527,4,0.3,50.0,1.0,1,1.0,0.2530010000000402
528,4,0.5,50.0,1.0,1,1.0,1.2412010000002738
529,4,0.5,50.0,-1.0,1,0.0,0.2664010000003145
530,4,0.5,50.0,1.0,1,1.0,0.21820100000059028
531,4,0.5,50.0,-1.0,-1,1.0,0.532701000000543
532,4,0.5,100.0,1.0,-1,0.0,0.7283010000001013
533,4,0.6,100.0,1.0,-1,0.0,0.42330100000026505
534,4,0.6,100.0,1.0,-1,0.0,2.8752009999998336
535,4,0.5,100.0,1.0,-1,0.0,0.550300000000334
536,4,0.5,100.0,-1.0,1,0.0,0.2653009999999085
537,4,0.5,100.0,-1.0,-1,1.0,4.821001000000251
538,4,0.5,50.0,1.0,-1,0.0,0.39560100000016973
539,4,0.3,50.0,-1.0,-1,1.0,0.5574010000004819
540,4,0.5,50.0,1.0,-1,0.0,0.4057010000005903
541,4,0.1,50.0,1.0,-1,0.0,0.5007009999999354
542,4,0.1,50.0,1.0,-1,0.0,2.892601000000468
543,4,0.1,50.0,1.0,1,1.0,0.5010999999999513
544,4,0.5,50.0,1.0,-1,0.0,0.3994010000005801
545,4,0.2,50.0,1.0,-1,0.0,0.39150100000006205
546,4,0.2,50.0,1.0,-1,0.0,5.302901000000475
547,4,0.1,50.0,1.0,1,1.0,0.3252010000005612
548,4,0.5,100.0,1.0,-1,0.0,0.4832010000000082
549,4,0.2,100.0,-1.0,-1,1.0,0.47200100000009115
550,4,0.5,50.0,1.0,1,1.0,1.9434009999999944
551,4,0.5,100.0,-1.0,1,0.0,0.13500100000055681
552,4,0.4,100.0,1.0,-1,0.0,0.4169010000000526
553,4,0.4,100.0,1.0,-1,0.0,7.065200000000004
554,4,0.3,100.0,1.0,-1,0.0,0.6839010000003327
555,4,0.3,100.0,1.0,-1,0.0,1.805601000000479
556,4,0.3,100.0,1.0,-1,0.0,1.3640009999999165
557,4,0.3,100.0,1.0,-1,0.0,0.41960100000005696
558,4,0.2,100.0,1.0,1,1.0,0.24450100000012753
559,4,0.5,100.0,1.0,-1,0.0,2.1296010000000933
560,4,0.3,100.0,1.0,-1,0.0,0.6778010000007271
561,4,0.2,100.0,1.0,1,1.0,0.22270100000059756
562,4,0.5,50.0,-1.0,1,0.0,0.1878010000004906
563,4,0.3,50.0,1.0,-1,0.0,0.6463010000006761
564,4,0.3,50.0,1.0,1,1.0,3.2247010000000955
565,4,0.5,100.0,1.0,-1,0.0,6.7806000000000495
566,4,0.4,100.0,1.0,-1,0.0,2.9482010000001537
567,4,0.4,100.0,-1.0,-1,1.0,0.5446010000005117
568,4,0.5,100.0,-1.0,-1,1.0,0.4886010000004717
569,4,0.5,50.0,1.0,-1,0.0,0.44050000000015643
570,4,0.3,50.0,1.0,-1,0.0,0.5653009999996357
571,4,0.3,50.0,-1.0,-1,1.0,0.463701000000583
572,4,0.5,100.0,1.0,-1,0.0,1.205500999999913
573,4,0.1,100.0,1.0,-1,0.0,0.4372010000006412
574,4,0.1,100.0,-1.0,-1,1.0,0.4557009999998627
575,4,0.5,100.0,1.0,1,1.0,0.19100100000059683
576,4,0.5,100.0,1.0,-1,0.0,1.1926010000001952
577,4,0.1,100.0,1.0,-1,0.0,0.7679009999997106
578,4,0.1,100.0,1.0,1,1.0,0.2794010000002345
579,4,0.5,100.0,1.0,1,1.0,0.28170100000033926
580,4,0.5,100.0,1.0,-1,0.0,1.4197010000002592
581,4,0.3,100.0,-1.0,1,0.0,0.2814010000001872
582,4,0.4,100.0,-1.0,-1,1.0,0.49300099999982194
583,4,0.5,50.0,1.0,1,1.0,0.2549010000002454
584,4,0.5,50.0,1.0,-1,0.0,0.4632000000001426
585,4,0.5,50.0,-1.0,-1,1.0,0.48150100000020757
586,4,0.5,100.0,1.0,-1,0.0,4.330001000000266
587,4,0.4,100.0,1.0,1,1.0,0.24830100000008315
588,4,0.5,50.0,-1.0,-1,1.0,0.5635009999996328
589,4,0.5,100.0,-1.0,1,0.0,0.20540099999971062
590,4,0.4,100.0,-1.0,-1,1.0,0.4870009999999638
591,4,0.5,50.0,1.0,1,1.0,0.238901000000169
592,4,0.5,100.0,-1.0,-1,1.0,0.4438010000003487
593,4,0.5,100.0,1.0,1,1.0,0.24260099999992235
594,4,0.5,100.0,1.0,-1,0.0,0.610801000000265
595,4,0.4,100.0,1.0,-1,0.0,1.1526009999997768
596,4,0.4,100.0,1.0,1,1.0,0.2508010000001377
597,4,0.5,50.0,1.0,-1,0.0,0.5225010000003749
598,4,0.4,50.0,-1.0,1,0.0,0.18760100000008606
599,4,0.5,50.0,-1.0,-1,1.0,0.42290100000036546
600,4,0.5,100.0,1.0,-1,0.0,0.4579010000006747
601,4,0.4,100.0,1.0,-1,0.0,0.4566010000003189
602,4,0.3,100.0,-1.0,1,0.0,0.2347010000003138
603,4,0.4,100.0,-1.0,1,0.0,0.20670100000006641
604,4,0.4,100.0,-1.0,1,0.0,0.20150000000057844
605,4,0.5,100.0,1.0,-1,0.0,13.810101000000486
606,4,0.5,100.0,1.0,1,1.0,21.192001000000346
607,4,0.5,100.0,1.0,-1,0.0,1.9906010000004244
608,4,0.5,100.0,-1.0,-1,1.0,0.7057009999998627
609,4,0.5,100.0,1.0,-1,0.0,0.5875009999999747
610,4,0.4,100.0,-1.0,-1,1.0,0.6493010000003778
611,4,0.5,100.0,1.0,1,1.0,0.2283010000005561
612,4,0.5,50.0,-1.0,-1,1.0,0.5794009999999616
613,4,0.5,50.0,-1.0,-1,1.0,0.5448010000000068
614,4,0.5,100.0,-1.0,-1,1.0,0.5196010000004208
615,4,0.5,100.0,-1.0,-1,1.0,0.33160100000077364
616,4,0.5,100.0,-1.0,-1,1.0,0.4463010000004033
617,4,0.5,100.0,-1.0,-1,1.0,0.665201000000252
618,4,0.5,100.0,1.0,1,1.0,0.3599010000002636
619,4,0.5,50.0,-1.0,-1,1.0,0.5731010000004062
620,4,0.5,50.0,1.0,-1,0.0,3.166701000000103
621,4,0.2,50.0,-1.0,-1,1.0,0.47200100000009115
622,4,0.5,50.0,1.0,-1,0.0,0.5968000000007123
623,4,0.1,50.0,1.0,-1,0.0,0.572001000000455
624,4,0.1,50.0,1.0,-1,0.0,0.5138010000005124
625,4,0.1,50.0,1.0,-1,0.0,0.43560100000013335
626,4,0.1,50.0,-1.0,-1,1.0,0.41730100000040693
627,4,0.5,50.0,1.0,1,1.0,0.2128010000001268
628,4,0.5,100.0,1.0,1,1.0,1.9374010000001363
629,4,0.5,100.0,1.0,-1,0.0,0.5727010000000519
630,4,0.2,100.0,1.0,-1,0.0,0.4643010000004324
631,4,0.2,100.0,1.0,-1,0.0,0.4596010000000206
632,4,0.2,100.0,1.0,-1,0.0,10.567801000000145
633,4,0.2,100.0,1.0,1,1.0,0.7234010000001945
634,4,0.5,50.0,-1.0,-1,1.0,0.5183009999996102
635,4,0.5,50.0,1.0,-1,0.0,0.5902009999999791
636,4,0.3,50.0,-1.0,-1,1.0,0.5250009999999747
637,4,0.5,50.0,-1.0,-1,1.0,0.4204010000003109
638,4,0.5,100.0,-1.0,1,0.0,0.47190100000034363
639,4,0.2,100.0,1.0,-1,0.0,0.5671010000000933
640,4,0.2,100.0,1.0,-1,0.0,0.4120010000001457
641,4,0.2,100.0,-1.0,-1,1.0,0.4546010000003662
642,4,0.5,100.0,-1.0,-1,1.0,0.5455010000005132
643,4,0.5,100.0,1.0,-1,0.0,0.6278010000000904
644,4,0.1,100.0,1.0,1,1.0,0.2556009999998423
645,4,0.5,50.0,1.0,1,1.0,0.301401000000169
646,4,0.5,50.0,1.0,-1,0.0,0.6159010000001217
647,4,0.3,50.0,1.0,1,1.0,0.2481999999999971
648,4,0.5,100.0,1.0,-1,0.0,0.6726010000002134
649,4,0.3,100.0,1.0,1,1.0,0.9413009999998394
650,4,0.5,100.0,1.0,1,1.0,2.3461010000000897
651,4,0.5,50.0,1.0,-1,0.0,0.5781010000000606
652,4,0.5,50.0,-1.0,1,0.0,0.18640100000038728
653,4,0.6,50.0,1.0,-1,0.0,0.5619010000004891
654,4,0.6,50.0,-1.0,-1,1.0,0.44990099999995437
655,4,0.5,50.0,-1.0,-1,1.0,0.3985010000001239
656,4,0.5,100.0,1.0,-1,0.0,1.796701000000212
657,4,0.4,100.0,-1.0,-1,1.0,0.5956009999999878
658,4,0.5,100.0,-1.0,1,0.0,0.24350100000037855
659,4,0.4,100.0,-1.0,1,0.0,0.25220100000024104
660,4,0.4,100.0,-1.0,-1,1.0,0.45040100000005623
661,4,0.5,100.0,1.0,-1,0.0,0.4123010000002978
662,4,0.3,100.0,-1.0,-1,1.0,0.40750100000013845
663,4,0.5,100.0,-1.0,-1,1.0,0.7128010000001268
664,4,0.5,50.0,1.0,-1,0.0,0.7273009999998976
665,4,0.2,50.0,1.0,-1,0.0,6.106401000000005
666,4,0.2,50.0,1.0,-1,0.0,0.6209010000002309
667,4,0.2,50.0,1.0,-1,0.0,5.199900999999954
668,4,0.2,50.0,1.0,-1,0.0,0.41800100000000384
669,4,0.1,50.0,1.0,-1,0.0,0.474601000000348
670,4,0.0,50.0,1.0,-1,0.0,0.4947010000005321
671,4,0.0,50.0,1.0,-1,0.0,0.5468009999999595
672,4,0.0,50.0,1.0,-1,0.0,0.5317010000003393
673,4,0.0,50.0,1.0,-1,0.0,0.7183010000003378
674,4,0.0,50.0,1.0,-1,0.0,7.887100999999802
675,4,0.0,50.0,-1.0,-1,1.0,0.6020009999997455
676,4,0.5,50.0,1.0,-1,0.0,0.638101000000006
677,4,0.0,50.0,-1.0,1,0.0,0.2187010000002374
678,4,0.1,50.0,1.0,-1,0.0,4.174101000000064
679,4,0.1,50.0,1.0,-1,0.0,0.4723010000002432
680,4,0.1,50.0,1.0,-1,0.0,1.8146010000000388
681,4,0.1,50.0,-1.0,-1,1.0,0.49920100000053935
682,4,0.5,50.0,1.0,-1,0.0,0.7044009999999616
683,4,0.1,50.0,1.0,-1,0.0,0.619300000000294
684,4,0.1,50.0,1.0,-1,0.0,6.825300999999854
685,4,0.1,50.0,1.0,-1,0.0,8.769600999999966
686,4,0.1,50.0,-1.0,-1,1.0,13.805101000000377
687,4,0.5,50.0,1.0,1,1.0,2.2601010000003043
688,4,0.5,50.0,1.0,-1,0.0,0.7192009999998845
689,4,0.1,50.0,1.0,-1,0.0,0.48700100000041857
690,4,0.1,50.0,1.0,-1,0.0,0.49790100000018356
691,4,0.1,50.0,1.0,-1,0.0,0.6438010000001668
692,4,0.1,50.0,1.0,-1,0.0,5.8398010000000795
693,4,0.1,50.0,1.0,1,1.0,0.26090100000055827
694,4,0.5,100.0,1.0,-1,0.0,0.5809010000002672
695,4,0.2,100.0,1.0,1,1.0,0.2709010000003218
696,4,0.5,50.0,1.0,-1,0.0,0.613901000000169
697,4,0.3,50.0,1.0,-1,0.0,6.508001000000149
698,4,0.2,50.0,-1.0,-1,1.0,0.7531010000002425
699,4,0.5,50.0,1.0,-1,0.0,8.791301000000203
700,4,0.2,50.0,1.0,1,1.0,0.47380100000009406
701,4,0.5,50.0,-1.0,1,0.0,0.24500100000068414
702,4,0.4,50.0,-1.0,-1,1.0,3.467501000000084
703,4,0.5,50.0,-1.0,-1,1.0,0.6451010000000679
704,4,0.5,50.0,-1.0,-1,1.0,0.4436010000003989
705,4,0.5,100.0,-1.0,1,0.0,3.618601000000126
706,4,0.3,100.0,1.0,-1,0.0,2.7073010000003705
707,4,0.3,100.0,1.0,1,1.0,5.728900999999951
708,4,0.5,100.0,1.0,-1,0.0,1.3749000000002525
709,4,0.4,100.0,-1.0,-1,1.0,0.44910100000060993
710,4,0.5,100.0,1.0,-1,0.0,4.241301000000021
711,4,0.3,100.0,-1.0,1,0.0,0.2260010000004513
712,4,0.3,100.0,-1.0,-1,1.0,1.2815010000003895
713,4,0.5,50.0,1.0,1,1.0,0.9632010000000264
714,4,0.5,100.0,1.0,1,1.0,0.27530100000058155
715,4,0.5,50.0,-1.0,-1,1.0,0.5395010000002003
716,4,0.5,100.0,-1.0,-1,1.0,0.7047010000001137
717,4,0.5,50.0,1.0,-1,0.0,0.5164010000003145
718,4,0.3,50.0,1.0,1,1.0,0.23160100000040984
719,4,0.5,100.0,1.0,-1,0.0,0.7398010000001705
720,4,0.4,100.0,1.0,1,1.0,0.9750010000002476
721,4,0.5,50.0,1.0,-1,0.0,0.5134009999997033
722,4,0.4,50.0,1.0,-1,0.0,0.42180099999995946
723,4,0.4,50.0,-1.0,-1,1.0,0.47340100000019447
724,4,0.5,100.0,-1.0,-1,1.0,0.5355009999998401
725,4,0.5,100.0,1.0,-1,0.0,0.4370010000002367
726,4,0.2,100.0,1.0,-1,0.0,2.1289010000004964
727,4,0.2,100.0,1.0,-1,0.0,8.930601000000024
728,4,0.2,100.0,1.0,-1,0.0,0.6473010000004251
729,4,0.1,100.0,1.0,-1,0.0,4.784200999999939
730,4,0.1,100.0,-1.0,-1,1.0,1.379601000000548
731,4,0.5,50.0,-1.0,-1,1.0,0.49120099999981903
732,4,0.5,50.0,1.0,1,1.0,0.29970100000036837
733,4,0.5,50.0,-1.0,-1,1.0,0.5679010000003473
734,4,0.5,50.0,-1.0,-1,1.0,3.3002010000004702
735,4,0.5,50.0,-1.0,-1,1.0,0.42810099999996964
736,4,0.5,100.0,1.0,-1,0.0,0.6003009999999449
737,4,0.1,100.0,1.0,-1,0.0,0.6549010000003364
738,4,0.1,100.0,-1.0,-1,1.0,0.5169010000004164
739,4,0.5,50.0,1.0,-1,0.0,0.46170100000017555
740,4,0.1,50.0,-1.0,-1,1.0,1.5405009999999493
741,4,0.5,100.0,1.0,-1,0.0,0.4354010000006383
742,4,0.1,100.0,1.0,-1,0.0,0.4337010000003829
743,4,0.0,100.0,1.0,-1,0.0,0.4225010000000111
744,4,0.0,100.0,1.0,-1,0.0,7.167201000000205
745,4,0.0,100.0,1.0,-1,0.0,15.90250100000003
746,4,0.0,100.0,-1.0,1,0.0,0.29830100000026505
747,4,0.1,100.0,1.0,-1,0.0,6.326101000000108
748,4,0.1,100.0,1.0,-1,0.0,6.815001000000393
749,4,0.1,100.0,-1.0,-1,1.0,4.883201000000099
750,4,0.5,50.0,1.0,-1,0.0,4.028401000000031
751,4,0.1,50.0,-1.0,-1,1.0,0.5502010000000155
752,4,0.5,50.0,1.0,-1,0.0,17.958401000000322
1,5,0.5,50.0,-1.0,-1,1.0,1.9857
2,5,0.5,100.0,-1.0,-1,1.0,4.4686
3,5,0.5,100.0,-1.0,1,0.0,0.2036000000000051
4,5,0.8,100.0,1.0,1,1.0,0.20670000000000144
5,5,0.5,100.0,1.0,-1,0.0,0.7515000000000036
6,5,0.7,100.0,1.0,1,1.0,1.0934999999999988
7,5,0.5,100.0,1.0,-1,0.0,1.7628000000000057
8,5,0.6,100.0,-1.0,-1,1.0,0.9080999999999975
9,5,0.5,50.0,1.0,-1,0.0,0.6354000000000042
10,5,0.4,50.0,-1.0,-1,1.0,1.4982989999999958
11,5,0.5,50.0,1.0,-1,0.0,1.949899000000002
12,5,0.3,50.0,1.0,-1,0.0,8.426899999999996
13,5,0.3,50.0,1.0,1,1.0,0.1828000000000145
14,5,0.5,50.0,1.0,-1,0.0,0.5267000000000053
15,5,0.2,50.0,1.0,1,1.0,8.71520000000001
16,5,0.5,50.0,-1.0,-1,1.0,0.8948999999999927
17,5,0.5,50.0,-1.0,-1,1.0,1.1137999999999835
18,5,0.5,100.0,-1.0,1,0.0,0.17390000000000327
19,5,0.3,100.0,-1.0,-1,1.0,0.7428000000000026
20,5,0.5,100.0,-1.0,1,0.0,0.19249999999999545
21,5,0.4,100.0,-1.0,-1,1.0,0.3200000000000074
22,5,0.5,50.0,-1.0,1,0.0,0.21940000000000737
23,5,0.5,50.0,1.0,-1,0.0,4.503899999999987
24,5,0.4,50.0,-1.0,1,0.0,0.36369999999999436
25,5,0.5,50.0,1.0,-1,0.0,0.5288989999999956
26,5,0.4,50.0,-1.0,-1,1.0,0.43789999999998486
27,5,0.5,100.0,1.0,-1,0.0,0.7229999999999848
28,5,0.4,100.0,1.0,1,1.0,0.16549999999998022
29,5,0.5,50.0,-1.0,-1,1.0,0.6730000000000018
30,5,0.5,100.0,-1.0,-1,1.0,0.6391999999999882
31,5,0.5,50.0,1.0,-1,0.0,0.48399999999998045
32,5,0.3,50.0,1.0,-1,0.0,0.49339999999997985
33,5,0.2,50.0,1.0,1,1.0,2.1301999999999737
34,5,0.5,50.0,1.0,1,1.0,0.9253999999999678
35,5,0.5,100.0,1.0,-1,0.0,0.42199999999999704
36,5,0.3,100.0,1.0,-1,0.0,1.0790000000000077
37,5,0.3,100.0,-1.0,-1,1.0,0.589999999999975
38,5,0.5,50.0,1.0,1,1.0,0.18539999999998713
39,5,0.5,50.0,1.0,-1,0.0,0.3649999999999807
40,5,0.3,50.0,1.0,1,1.0,0.18449999999998568
41,5,0.5,50.0,1.0,-1,0.0,0.29930000000001655
42,5,0.4,50.0,1.0,1,1.0,0.20079999999998677
43,5,0.5,100.0,-1.0,1,0.0,0.26899999999997704
44,5,0.5,100.0,1.0,-1,0.0,0.6608999999999696
45,5,0.4,100.0,1.0,-1,0.0,0.4683000000000277
46,5,0.4,100.0,-1.0,-1,1.0,0.3581999999999823
47,5,0.5,50.0,1.0,-1,0.0,0.6281000000000176
48,5,0.4,50.0,1.0,-1,0.0,0.4859000000000151
49,5,0.3,50.0,1.0,1,1.0,0.22019999999997708
50,5,0.5,50.0,1.0,-1,0.0,0.44720000000000937
51,5,0.3,50.0,-1.0,-1,1.0,0.6061000000000263
52,5,0.5,100.0,1.0,1,1.0,0.206799999999987
53,5,0.5,50.0,1.0,-1,0.0,0.29090000000007876
54,5,0.2,50.0,1.0,-1,0.0,0.4265999999999508
55,5,0.2,50.0,1.0,1,1.0,1.420500000000004
56,5,0.5,50.0,1.0,-1,0.0,0.3920999999999708
57,5,0.3,50.0,1.0,1,1.0,0.41530000000005884
58,5,0.5,100.0,-1.0,1,0.0,0.21210000000002083
59,5,0.5,100.0,-1.0,1,0.0,0.12920000000002574
60,5,0.5,100.0,-1.0,1,0.0,0.23419999999998709
61,5,0.6,100.0,-1.0,-1,1.0,0.1563000000000443
62,5,0.5,100.0,-1.0,1,0.0,0.251199999999983
63,5,0.6,100.0,-1.0,1,0.0,1.2217000000000553
64,5,0.7,100.0,-1.0,1,0.0,0.22719999999998208
65,5,0.8,100.0,1.0,-1,0.0,0.3339000000000283
66,5,0.7,100.0,1.0,1,1.0,0.21640000000002146
67,5,0.5,100.0,1.0,1,1.0,0.22630000000003747
68,5,0.5,50.0,-1.0,-1,1.0,0.3900000000000432
69,5,0.5,100.0,1.0,-1,0.0,2.6007000000000744
70,5,0.6,100.0,-1.0,-1,1.0,0.3972999999999729
71,5,0.5,100.0,1.0,1,1.0,0.23120000000000118
72,5,0.5,100.0,-1.0,1,0.0,0.21229999999997062
73,5,0.6,100.0,-1.0,1,0.0,0.19900000000001228
74,5,0.6,100.0,-1.0,-1,1.0,0.8940000000000055
75,5,0.5,50.0,-1.0,1,0.0,0.2648999999999546
76,5,0.6,50.0,-1.0,-1,1.0,0.5476999999999634
77,5,0.5,100.0,1.0,-1,0.0,0.5071000000000367
78,5,0.4,100.0,-1.0,-1,1.0,0.47800000000000864
79,5,0.5,100.0,1.0,-1,0.0,1.3024999999999523
80,5,0.4,100.0,-1.0,-1,1.0,0.5354000000000383
81,5,0.5,100.0,1.0,-1,0.0,0.5486999999999966
82,5,0.3,100.0,-1.0,-1,1.0,0.470100000000059
83,5,0.5,100.0,1.0,-1,0.0,0.5189000000000874
84,5,0.1,100.0,1.0,-1,0.0,0.412399999999991
85,5,0.1,100.0,1.0,-1,0.0,0.43840000000000146
86,5,0.0,100.0,1.0,-1,0.0,0.4876000000000431
87,5,0.0,100.0,1.0,1,1.0,0.3673989999999776
88,5,0.5,100.0,1.0,-1,0.0,0.35840000000001737
89,5,0.1,100.0,1.0,-1,0.0,0.7837000000000103
90,5,0.1,100.0,1.0,1,1.0,0.24740000000002738
91,5,0.5,50.0,1.0,-1,0.0,0.14050000000003138
92,5,0.2,50.0,1.0,-1,0.0,0.5194000000000756
93,5,0.2,50.0,-1.0,-1,1.0,0.5191000000000372
94,5,0.5,100.0,1.0,-1,0.0,0.412399999999991
95,5,0.2,100.0,1.0,1,1.0,0.21219999999999573
96,5,0.5,100.0,1.0,-1,0.0,0.5677000000000021
97,5,0.3,100.0,-1.0,-1,1.0,0.7401000000000408
98,5,0.5,100.0,1.0,-1,0.0,0.9205000000000041
99,5,0.2,100.0,1.0,1,1.0,0.752900000000011
100,5,0.5,100.0,1.0,-1,0.0,0.35810000000003583
101,5,0.2,100.0,1.0,-1,0.0,3.4528000000000247
102,5,0.2,100.0,1.0,1,1.0,0.2241999999998825
103,5,0.5,50.0,1.0,-1,0.0,0.36639999999988504
104,5,0.3,50.0,-1.0,-1,1.0,0.9384999999999764
105,5,0.5,100.0,1.0,-1,0.0,0.22709999999995034
106,5,0.2,100.0,1.0,-1,0.0,0.4654999999999063
107,5,0.2,100.0,1.0,-1,0.0,0.4053000000000111
108,5,0.2,100.0,1.0,-1,0.0,0.5757999999999583
109,5,0.2,100.0,1.0,-1,0.0,0.44889999999998054
110,5,0.1,100.0,1.0,-1,0.0,0.6367999999999938
111,5,0.1,100.0,1.0,-1,0.0,0.4147000000000389
112,5,0.1,100.0,-1.0,-1,1.0,0.46879999999998745
113,5,0.5,100.0,1.0,-1,0.0,0.45150000000001
114,5,0.0,100.0,1.0,-1,0.0,0.3967000000000098
115,5,0.0,100.0,1.0,1,1.0,0.21479999999985466
116,5,0.5,50.0,1.0,1,1.0,0.3166999999999689
