trial_num,session_num,stim_probability_left,contrast,position,response_choice,trial_correct,reaction_time
1,1,0.5,0.0,1.0,1,1.0,0.38439999999999985
2,1,0.5,0.0,-1.0,1,0.0,0.34580000000000055
3,1,0.5,25.0,-1.0,-1,1.0,0.40300000000000047
4,1,0.5,12.5,1.0,1,1.0,0.28669999999999973
5,1,0.5,25.0,-1.0,1,0.0,0.22129999999999939
6,1,0.5,25.0,1.0,1,1.0,0.23319999999999652
7,1,0.5,25.0,-1.0,-1,1.0,0.3686000000000007
8,1,0.5,25.0,1.0,1,1.0,0.2733989999999906
9,1,0.5,100.0,1.0,1,1.0,0.23999999999999488
10,1,0.5,25.0,-1.0,-1,1.0,0.30999999999999517
11,1,0.5,25.0,1.0,1,1.0,0.42680000000000007
12,1,0.5,100.0,-1.0,-1,1.0,0.3678990000000013
13,1,0.5,100.0,1.0,1,1.0,0.21159999999999002
14,1,0.5,12.5,-1.0,-1,1.0,0.359800000000007
15,1,0.5,0.0,1.0,-1,0.0,0.1441990000000004
16,1,0.5,12.5,-1.0,-1,1.0,0.23269999999999413
17,1,0.5,0.0,1.0,1,1.0,0.625
18,1,0.5,6.25,-1.0,1,0.0,0.3207999999999913
19,1,0.5,25.0,1.0,1,1.0,0.20369999999998356
20,1,0.5,25.0,1.0,1,1.0,0.2359000000000009
21,1,0.5,100.0,-1.0,-1,1.0,0.3136999999999972
22,1,0.5,6.25,-1.0,1,0.0,0.20680000000001542
23,1,0.5,6.25,-1.0,-1,1.0,0.47860000000000014
24,1,0.5,0.0,-1.0,1,0.0,0.20579899999999895
25,1,0.5,100.0,-1.0,-1,1.0,0.2787000000000148
26,1,0.5,6.25,1.0,-1,0.0,0.2878999999999934
27,1,0.5,6.25,-1.0,-1,1.0,0.2991000000000099
28,1,0.5,0.0,1.0,-1,0.0,0.307200000000023
29,1,0.5,12.5,1.0,-1,0.0,0.32730000000000814
30,1,0.5,100.0,-1.0,-1,1.0,0.3118999999999801
31,1,0.5,0.0,1.0,-1,0.0,0.2744999999999891
32,1,0.5,100.0,-1.0,-1,1.0,0.22120000000001028
33,1,0.5,25.0,-1.0,-1,1.0,0.2985999999999933
34,1,0.5,100.0,-1.0,-1,1.0,0.17299900000000434
35,1,0.5,6.25,-1.0,-1,1.0,0.3443990000000099
36,1,0.5,0.0,-1.0,-1,1.0,0.2563000000000102
37,1,0.5,100.0,1.0,1,1.0,0.6321999999999832
38,1,0.5,12.5,1.0,-1,0.0,0.34890000000001464
39,1,0.5,0.0,1.0,1,1.0,0.28580000000002315
40,1,0.5,25.0,1.0,1,1.0,0.11820000000000164
41,1,0.5,6.25,-1.0,1,0.0,0.28950000000000387
42,1,0.5,25.0,1.0,1,1.0,0.19959999999997535
43,1,0.5,6.25,1.0,1,1.0,0.21270000000001232
44,1,0.5,100.0,1.0,1,1.0,0.1851000000000056
45,1,0.5,25.0,-1.0,1,0.0,0.2293990000000008
46,1,0.5,6.25,-1.0,1,0.0,0.15059999999999718
47,1,0.5,6.25,-1.0,1,0.0,0.21049999999999613
48,1,0.5,25.0,1.0,1,1.0,0.24369899999999234
49,1,0.5,0.0,1.0,1,1.0,0.20770000000001687
50,1,0.5,12.5,1.0,1,1.0,0.45019999999999527
51,1,0.5,6.25,-1.0,1,0.0,0.29649999999998045
52,1,0.5,0.0,1.0,1,1.0,0.19749899999999343
53,1,0.5,100.0,-1.0,-1,1.0,0.16509999999999536
54,1,0.5,25.0,1.0,1,1.0,0.2179999999999609
55,1,0.5,25.0,1.0,1,1.0,0.2092989999999304
56,1,0.5,12.5,-1.0,-1,1.0,0.3855000000000359
57,1,0.5,0.0,1.0,1,1.0,4.299199999999985
58,1,0.5,25.0,1.0,1,1.0,0.32349999999996726
59,1,0.5,12.5,-1.0,-1,1.0,0.3270999999999731
60,1,0.5,25.0,1.0,1,1.0,0.19350000000002865
61,1,0.5,100.0,-1.0,-1,1.0,0.26319999999998345
62,1,0.5,100.0,-1.0,-1,1.0,0.15510000000000446
63,1,0.5,0.0,1.0,1,1.0,0.9367990000000077
64,1,0.5,100.0,-1.0,-1,1.0,0.2828000000000088
65,1,0.5,6.25,-1.0,1,0.0,0.23509999999998854
66,1,0.5,25.0,1.0,1,1.0,0.20849999999995816
67,1,0.5,25.0,-1.0,-1,1.0,0.28290000000004056
68,1,0.5,100.0,1.0,-1,0.0,0.12060000000002447
69,1,0.5,0.0,-1.0,-1,1.0,0.28209999999995716
70,1,0.5,100.0,-1.0,-1,1.0,0.14519999999998845
71,1,0.5,12.5,-1.0,-1,1.0,0.27379999999999427
72,1,0.5,12.5,-1.0,-1,1.0,0.3521999999999821
73,1,0.5,25.0,-1.0,-1,1.0,0.30049999999999955
74,1,0.5,0.0,-1.0,1,0.0,1.0548990000000344
75,1,0.5,6.25,-1.0,1,0.0,0.24129999999996699
76,1,0.5,25.0,1.0,1,1.0,0.19969999999995025
77,1,0.5,100.0,1.0,1,1.0,0.21620000000001482
78,1,0.5,0.0,-1.0,-1,1.0,0.404200000000003
79,1,0.5,12.5,1.0,1,1.0,0.17619999999999436
80,1,0.5,100.0,-1.0,-1,1.0,0.2617000000000189
81,1,0.5,6.25,-1.0,-1,1.0,0.415300000000002
82,1,0.5,6.25,1.0,1,1.0,0.19369999999997844
83,1,0.5,0.0,-1.0,1,0.0,0.21219999999999573
84,1,0.5,25.0,1.0,1,1.0,0.21819999999996753
85,1,0.5,25.0,1.0,1,1.0,0.20629999999999882
86,1,0.5,12.5,1.0,1,1.0,0.25499999999999545
87,1,0.5,12.5,-1.0,1,0.0,0.1778990000000249
88,1,0.5,0.0,-1.0,1,0.0,0.32370000000003074
89,1,0.5,0.0,-1.0,1,0.0,0.20460000000002765
90,1,0.5,6.25,1.0,1,1.0,0.13339999999999463
91,1,0.8,6.25,-1.0,1,0.0,0.25560000000001537
92,1,0.8,25.0,-1.0,1,0.0,0.13679899999999634
93,1,0.8,25.0,-1.0,1,0.0,0.2629000000000019
94,1,0.8,6.25,1.0,1,1.0,0.22429999999997108
95,1,0.8,0.0,-1.0,1,0.0,0.33330000000000837
96,1,0.8,12.5,-1.0,1,0.0,0.2647999999999797
97,1,0.8,0.0,-1.0,1,0.0,0.2820000000000391
98,1,0.8,6.25,-1.0,1,0.0,0.27350000000001273
99,1,0.8,25.0,-1.0,1,0.0,0.26399999999995316
100,1,0.8,25.0,-1.0,-1,1.0,0.4492000000000189
101,1,0.8,100.0,-1.0,-1,1.0,0.2656000000000063
102,1,0.8,12.5,-1.0,-1,1.0,0.32070000000004484
103,1,0.8,0.0,1.0,-1,0.0,0.2930989999999838
104,1,0.8,100.0,-1.0,-1,1.0,0.2259999999999991
105,1,0.8,0.0,-1.0,-1,1.0,0.2719000000000733
106,1,0.8,6.25,-1.0,-1,1.0,1.975999999999999
107,1,0.8,6.25,1.0,-1,0.0,0.27979999999990923
108,1,0.8,25.0,-1.0,-1,1.0,0.2742999999999256
109,1,0.8,0.0,-1.0,-1,1.0,0.25099999999997635
110,1,0.8,6.25,-1.0,-1,1.0,0.2681000000001177
111,1,0.8,100.0,-1.0,-1,1.0,0.2442999999999529
112,1,0.8,0.0,1.0,-1,0.0,0.29799900000000434
113,1,0.8,100.0,-1.0,-1,1.0,0.25339999999994234
114,1,0.8,100.0,-1.0,-1,1.0,0.22320000000001983
115,1,0.8,0.0,1.0,-1,0.0,0.29779999999993834
116,1,0.2,0.0,-1.0,-1,1.0,0.24549999999999272
117,1,0.2,0.0,1.0,-1,0.0,0.3612000000000535
118,1,0.2,100.0,1.0,1,1.0,0.25359899999989466
119,1,0.2,6.25,1.0,1,1.0,1.5156000000000631
120,1,0.2,100.0,-1.0,-1,1.0,0.2941990000000487
121,1,0.2,6.25,1.0,1,1.0,0.32350000000008095
122,1,0.2,12.5,1.0,1,1.0,0.3122000000000753
123,1,0.2,0.0,1.0,1,1.0,0.20810100000005605
124,1,0.2,25.0,1.0,1,1.0,0.2376000000000431
125,1,0.2,100.0,-1.0,-1,1.0,0.382300999999984
126,1,0.2,100.0,-1.0,-1,1.0,0.30910100000005514
127,1,0.2,0.0,1.0,-1,0.0,0.2954009999999698
128,1,0.2,100.0,1.0,1,1.0,0.25970099999995
129,1,0.2,25.0,1.0,1,1.0,0.2050010000000384
130,1,0.2,12.5,-1.0,1,0.0,0.22240099999999074
131,1,0.2,25.0,1.0,1,1.0,0.20570100000009006
132,1,0.2,25.0,-1.0,-1,1.0,0.2656009999999469
133,1,0.2,100.0,1.0,1,1.0,0.20050100000003113
134,1,0.2,12.5,-1.0,-1,1.0,0.28030100000012226
135,1,0.2,12.5,1.0,1,1.0,0.261400999999978
136,1,0.2,100.0,1.0,1,1.0,0.20200100000010934
137,1,0.2,100.0,-1.0,-1,1.0,0.41650000000004184
138,1,0.2,12.5,1.0,1,1.0,0.2671010000000251
139,1,0.2,0.0,1.0,1,1.0,0.780601000000047
140,1,0.2,12.5,1.0,1,1.0,0.6126010000000406
141,1,0.2,6.25,1.0,1,1.0,0.23640099999988706
142,1,0.2,100.0,1.0,1,1.0,0.24030099999993126
143,1,0.2,100.0,1.0,1,1.0,0.2633009999999558
144,1,0.2,0.0,-1.0,1,0.0,0.2714009999999689
145,1,0.2,12.5,1.0,1,1.0,0.2156999999999698
146,1,0.2,0.0,1.0,-1,0.0,0.38160100000004604
147,1,0.2,100.0,1.0,1,1.0,0.2683009999999513
148,1,0.2,6.25,-1.0,-1,1.0,0.08760099999994964
149,1,0.2,0.0,1.0,1,1.0,0.20820100000003094
150,1,0.2,0.0,1.0,1,1.0,0.22900000000004184
151,1,0.2,12.5,1.0,1,1.0,0.2152010000000928
152,1,0.2,25.0,1.0,-1,0.0,0.41180099999996855
153,1,0.2,0.0,1.0,1,1.0,0.19340099999999438
154,1,0.2,100.0,1.0,1,1.0,0.21610100000009425
155,1,0.2,6.25,1.0,1,1.0,0.9760009999999966
156,1,0.2,100.0,1.0,1,1.0,0.7422010000000228
157,1,0.2,100.0,-1.0,-1,1.0,0.47040100000003804
158,1,0.2,6.25,1.0,1,1.0,0.26470000000006166
159,1,0.8,6.25,-1.0,1,0.0,0.20350099999996019
160,1,0.8,0.0,1.0,1,1.0,0.22970100000009097
161,1,0.8,12.5,-1.0,-1,1.0,0.3864010000000917
162,1,0.8,100.0,-1.0,-1,1.0,0.30530099999998583
163,1,0.8,6.25,-1.0,-1,1.0,0.1205009999999902
164,1,0.8,12.5,-1.0,-1,1.0,0.28290100000003804
165,1,0.8,0.0,-1.0,-1,1.0,0.0982010000000173
166,1,0.8,12.5,-1.0,-1,1.0,0.3563009999999167
167,1,0.8,0.0,-1.0,-1,1.0,0.13640099999986433
168,1,0.8,100.0,1.0,1,1.0,0.2673009999999749
169,1,0.8,0.0,-1.0,1,0.0,0.24410100000000057
170,1,0.8,25.0,-1.0,-1,1.0,0.3014010000000553
171,1,0.8,100.0,-1.0,-1,1.0,0.27430100000003677
172,1,0.8,25.0,-1.0,-1,1.0,0.3526010000000497
173,1,0.8,0.0,1.0,1,1.0,0.4658009999999422
174,1,0.8,6.25,-1.0,1,0.0,0.42980099999999766
175,1,0.8,12.5,-1.0,-1,1.0,0.37330099999996946
176,1,0.8,25.0,-1.0,1,0.0,0.1290009999999029
177,1,0.8,6.25,-1.0,1,0.0,0.8506009999999833
178,1,0.8,25.0,-1.0,1,0.0,0.1585010000000011
179,1,0.8,25.0,-1.0,-1,1.0,0.09470099999998638
180,1,0.8,100.0,-1.0,-1,1.0,0.29900100000008933
181,1,0.8,12.5,-1.0,-1,1.0,0.281900999999948
182,1,0.8,25.0,-1.0,-1,1.0,0.2620010000000548
183,1,0.8,100.0,1.0,1,1.0,0.3094010000000935
184,1,0.8,12.5,1.0,1,1.0,0.3983009999999467
185,1,0.8,25.0,-1.0,1,0.0,0.21770099999992
186,1,0.8,6.25,-1.0,-1,1.0,0.31540099999995164
187,1,0.8,6.25,-1.0,1,0.0,0.3166009999998778
188,1,0.8,12.5,-1.0,-1,1.0,0.25090000000000146
189,1,0.8,12.5,-1.0,-1,1.0,0.18170099999997547
190,1,0.8,0.0,-1.0,1,0.0,0.20109999999999673
191,1,0.8,100.0,1.0,1,1.0,0.2753010000000131
192,1,0.8,6.25,1.0,1,1.0,0.1971010000000888
193,1,0.8,12.5,-1.0,-1,1.0,0.5143010000000459
194,1,0.8,12.5,1.0,1,1.0,0.2780000000001337
195,1,0.8,25.0,-1.0,-1,1.0,0.39440000000001874
196,1,0.8,6.25,-1.0,1,0.0,0.24440099999992526
197,1,0.8,12.5,-1.0,1,0.0,0.19470000000001164
198,1,0.8,12.5,-1.0,-1,1.0,0.37130100000013044
199,1,0.8,0.0,-1.0,-1,1.0,0.14140100000008715
200,1,0.8,6.25,1.0,1,1.0,0.2914009999999507
201,1,0.8,6.25,-1.0,-1,1.0,0.2580999999997857
202,1,0.8,100.0,-1.0,-1,1.0,0.2151010000000042
203,1,0.8,100.0,-1.0,-1,1.0,0.2318009999999049
204,1,0.8,100.0,1.0,1,1.0,0.2118000000000393
205,1,0.8,100.0,1.0,1,1.0,0.245401000000129
206,1,0.8,12.5,-1.0,-1,1.0,0.2521009999998114
207,1,0.8,25.0,-1.0,-1,1.0,0.35920099999998456
208,1,0.8,0.0,1.0,1,1.0,0.6324010000000726
209,1,0.8,12.5,-1.0,-1,1.0,0.545900999999958
210,1,0.8,6.25,-1.0,1,0.0,0.6294009999999162
211,1,0.8,100.0,-1.0,-1,1.0,0.2695009999999911
212,1,0.8,6.25,-1.0,-1,1.0,0.24620099999992817
213,1,0.8,6.25,-1.0,-1,1.0,0.30670099999997547
214,1,0.8,12.5,-1.0,-1,1.0,0.28640100000006896
215,1,0.8,12.5,1.0,1,1.0,0.24669999999991887
216,1,0.8,6.25,1.0,1,1.0,0.2999010000000908
217,1,0.8,100.0,-1.0,-1,1.0,0.25010100000008606
218,1,0.8,6.25,-1.0,1,0.0,0.263501000000133
219,1,0.8,12.5,-1.0,-1,1.0,0.2840009999999893
220,1,0.8,6.25,-1.0,1,0.0,0.217000999999982
221,1,0.8,0.0,-1.0,1,0.0,0.42390100000011444
222,1,0.8,12.5,-1.0,-1,1.0,0.3039009999999962
223,1,0.8,25.0,-1.0,-1,1.0,0.5407000000000153
224,1,0.8,6.25,1.0,1,1.0,0.24070099999994454
225,1,0.8,12.5,-1.0,1,0.0,0.4510009999999056
226,1,0.8,12.5,1.0,1,1.0,0.22440099999994345
227,1,0.8,25.0,-1.0,1,0.0,0.18460099999992963
228,1,0.2,0.0,1.0,-1,0.0,0.6945009999999456
229,1,0.2,100.0,1.0,1,1.0,0.21810099999993326
230,1,0.2,12.5,1.0,1,1.0,0.16820099999995364
231,1,0.2,25.0,1.0,1,1.0,0.2050010000000384
232,1,0.2,100.0,1.0,1,1.0,0.24850100000003295
233,1,0.2,100.0,1.0,1,1.0,0.20200100000010934
234,1,0.2,12.5,1.0,1,1.0,0.25200100000006387
235,1,0.2,25.0,1.0,1,1.0,0.21880099999998492
236,1,0.2,25.0,1.0,1,1.0,0.20890099999996892
237,1,0.2,0.0,1.0,1,1.0,0.20920100000012098
238,1,0.2,6.25,1.0,1,1.0,0.22250099999996564
239,1,0.2,25.0,1.0,1,1.0,0.22580100000004677
240,1,0.2,6.25,-1.0,1,0.0,0.2759009999999762
241,1,0.2,0.0,1.0,1,1.0,0.2596000000000913
242,1,0.2,12.5,1.0,1,1.0,0.2861009999999169
243,1,0.2,12.5,-1.0,1,0.0,0.2929999999998927
244,1,0.2,6.25,-1.0,-1,1.0,0.39290100000016537
245,1,0.2,0.0,1.0,1,1.0,0.2531010000000151
246,1,0.2,100.0,1.0,1,1.0,0.38990100000000893
247,1,0.2,6.25,1.0,-1,0.0,0.46340100000020357
248,1,0.2,25.0,-1.0,-1,1.0,0.35350099999982376
249,1,0.2,12.5,1.0,1,1.0,0.22040099999981067
250,1,0.2,25.0,1.0,1,1.0,0.22700099999997292
251,1,0.8,25.0,-1.0,1,0.0,0.31750099999976555
252,1,0.8,6.25,1.0,1,1.0,0.264100999999755
253,1,0.8,100.0,1.0,1,1.0,0.2577009999999973
254,1,0.8,0.0,-1.0,1,0.0,0.3709010000000035
255,1,0.8,6.25,1.0,1,1.0,0.2411010000000715
256,1,0.8,100.0,-1.0,-1,1.0,0.30450100000007296
257,1,0.8,0.0,-1.0,-1,1.0,0.36160099999983686
258,1,0.8,0.0,-1.0,-1,1.0,0.3647009999997408
259,1,0.8,25.0,-1.0,-1,1.0,0.27510099999994964
260,1,0.8,0.0,1.0,-1,0.0,0.2719010000000708
261,1,0.8,12.5,-1.0,-1,1.0,0.28530099999989034
262,1,0.8,25.0,-1.0,-1,1.0,0.3551009999998769
263,1,0.8,100.0,-1.0,-1,1.0,0.3520009999999729
264,1,0.8,0.0,1.0,-1,0.0,0.45210100000008424
265,1,0.8,0.0,-1.0,1,0.0,0.2756010000000515
266,1,0.8,100.0,-1.0,-1,1.0,0.40540100000021084
267,1,0.8,0.0,1.0,1,1.0,0.6789000000001124
268,1,0.8,6.25,-1.0,1,0.0,0.2656010000000606
269,1,0.8,25.0,-1.0,-1,1.0,0.27260100000012244
270,1,0.8,100.0,-1.0,-1,1.0,0.2792010000000573
271,1,0.8,6.25,-1.0,-1,1.0,0.30270000000018626
272,1,0.8,0.0,-1.0,-1,1.0,0.40259999999989304
273,1,0.2,100.0,-1.0,-1,1.0,0.2598009999999249
274,1,0.2,12.5,1.0,-1,0.0,0.10950100000013663
275,1,0.2,12.5,1.0,1,1.0,0.249800999999934
276,1,0.2,6.25,1.0,-1,0.0,0.19640099999992344
277,1,0.2,6.25,1.0,1,1.0,0.32320099999992635
278,1,0.2,100.0,1.0,1,1.0,0.25310099999978775
279,1,0.2,100.0,1.0,1,1.0,0.25010100000008606
280,1,0.2,6.25,-1.0,-1,1.0,0.4067009999998845
281,1,0.2,100.0,1.0,1,1.0,0.2134009999999762
282,1,0.2,0.0,1.0,-1,0.0,0.2802009999998063
283,1,0.2,100.0,-1.0,-1,1.0,0.2938010000000304
284,1,0.2,25.0,1.0,1,1.0,0.27700099999992744
285,1,0.2,0.0,1.0,1,1.0,0.9741010000000188
286,1,0.2,12.5,1.0,-1,0.0,0.104001000000153
287,1,0.2,12.5,1.0,1,1.0,0.5709010000002763
288,1,0.2,6.25,1.0,1,1.0,0.22090099999991253
289,1,0.2,12.5,-1.0,1,0.0,0.3213999999998123
290,1,0.2,100.0,1.0,1,1.0,0.2112010000000737
291,1,0.2,12.5,-1.0,1,0.0,0.2211010000000897
292,1,0.2,25.0,1.0,1,1.0,0.23140099999977792
293,1,0.2,12.5,1.0,1,1.0,0.34169999999994616
294,1,0.2,12.5,-1.0,1,0.0,0.20140100000003258
295,1,0.2,0.0,1.0,1,1.0,0.23820099999988997
296,1,0.2,12.5,-1.0,-1,1.0,0.3082010000000537
297,1,0.2,100.0,1.0,1,1.0,0.22170100000016646
298,1,0.2,100.0,1.0,1,1.0,0.22840100000007624
299,1,0.2,100.0,1.0,1,1.0,0.26199999999971624
300,1,0.2,100.0,1.0,1,1.0,0.21200100000010025
301,1,0.2,0.0,1.0,-1,0.0,0.31890100000009625
302,1,0.2,6.25,1.0,1,1.0,0.24560100000007878
303,1,0.2,12.5,1.0,1,1.0,0.24909999999999854
304,1,0.2,0.0,1.0,1,1.0,0.21240099999999984
305,1,0.2,0.0,1.0,1,1.0,0.265800999999783
306,1,0.2,25.0,1.0,1,1.0,0.20610100000021703
307,1,0.2,6.25,1.0,1,1.0,0.3262010000000828
308,1,0.2,12.5,-1.0,-1,1.0,0.3661010000000715
309,1,0.2,25.0,1.0,1,1.0,0.18990099999996346
310,1,0.2,12.5,-1.0,-1,1.0,0.31300099999998565
311,1,0.2,100.0,1.0,1,1.0,0.2134009999999762
312,1,0.2,6.25,1.0,1,1.0,0.29650100000003476
313,1,0.2,12.5,1.0,1,1.0,0.18020000000001346
314,1,0.2,12.5,1.0,1,1.0,0.2735009999998965
315,1,0.2,6.25,1.0,-1,0.0,0.1605010000000675
316,1,0.2,6.25,1.0,1,1.0,0.16360000000008768
317,1,0.2,6.25,1.0,1,1.0,0.21100000000001273
318,1,0.2,12.5,1.0,1,1.0,0.23059999999986758
319,1,0.2,0.0,1.0,1,1.0,0.2374010000000908
320,1,0.2,100.0,1.0,1,1.0,0.23740099999986342
321,1,0.2,0.0,1.0,1,1.0,0.9911010000000715
322,1,0.2,12.5,1.0,1,1.0,0.29460100000005696
323,1,0.2,100.0,1.0,1,1.0,0.22470000000021173
324,1,0.2,25.0,1.0,1,1.0,0.22450100000014572
325,1,0.2,0.0,1.0,1,1.0,0.26159999999981665
326,1,0.2,25.0,1.0,1,1.0,0.2613010000000031
327,1,0.2,25.0,1.0,1,1.0,0.2651010000001861
328,1,0.2,6.25,1.0,1,1.0,0.338200999999799
329,1,0.2,12.5,1.0,1,1.0,0.19860100000005332
330,1,0.2,12.5,1.0,1,1.0,0.0984009999999671
331,1,0.2,6.25,1.0,1,1.0,0.7989010000001144
332,1,0.2,6.25,1.0,1,1.0,0.2320999999999458
333,1,0.2,6.25,1.0,1,1.0,0.35920000000010077
334,1,0.2,6.25,1.0,1,1.0,0.24230100000022503
335,1,0.2,12.5,1.0,1,1.0,0.33930099999997765
336,1,0.2,25.0,1.0,1,1.0,0.20930100000009588
337,1,0.2,100.0,1.0,1,1.0,0.2230010000000675
338,1,0.2,100.0,1.0,1,1.0,0.2694010000000162
339,1,0.2,100.0,1.0,1,1.0,0.20000000000004547
340,1,0.2,25.0,1.0,1,1.0,0.1967010000000755
341,1,0.2,0.0,1.0,1,1.0,0.30340099999989434
342,1,0.2,0.0,1.0,1,1.0,0.19689999999991414
343,1,0.2,100.0,1.0,1,1.0,0.1771009999999933
344,1,0.2,25.0,1.0,1,1.0,0.23390000000017608
345,1,0.2,0.0,1.0,1,1.0,0.23410100000000966
346,1,0.2,25.0,1.0,1,1.0,0.2138999999999669
347,1,0.2,0.0,1.0,1,1.0,0.3641010000001188
348,1,0.2,25.0,1.0,1,1.0,0.24410100000000057
349,1,0.2,100.0,1.0,1,1.0,0.16790099999980157
350,1,0.2,12.5,1.0,1,1.0,0.27089999999998327
351,1,0.2,12.5,1.0,1,1.0,0.32130099999972117
352,1,0.2,100.0,-1.0,1,0.0,0.2113010000000486
353,1,0.2,25.0,1.0,1,1.0,0.2783000000001721
354,1,0.2,6.25,1.0,1,1.0,1.0314999999998236
355,1,0.2,0.0,1.0,1,1.0,0.2250010000002476
356,1,0.2,12.5,1.0,1,1.0,0.21850100000006023
357,1,0.2,0.0,1.0,1,1.0,0.28870099999994636
358,1,0.2,6.25,-1.0,1,0.0,0.23220100000003185
359,1,0.2,0.0,-1.0,1,0.0,0.1690009999999802
360,1,0.2,100.0,-1.0,-1,1.0,0.34560099999998783
361,1,0.2,0.0,1.0,1,1.0,0.20940100000007078
362,1,0.2,0.0,1.0,1,1.0,0.2792010000000573
363,1,0.2,12.5,-1.0,-1,1.0,0.30270100000007005
364,1,0.8,25.0,-1.0,-1,1.0,0.33270100000004277
365,1,0.8,25.0,-1.0,-1,1.0,0.3662010000000464
366,1,0.8,0.0,-1.0,-1,1.0,0.2963000000002012
367,1,0.8,12.5,-1.0,-1,1.0,0.3099009999998543
368,1,0.8,25.0,-1.0,-1,1.0,0.3131009999997332
369,1,0.8,0.0,-1.0,-1,1.0,0.21330100000022867
370,1,0.8,0.0,-1.0,-1,1.0,0.2900009999998474
371,1,0.8,25.0,-1.0,-1,1.0,0.30370099999981903
372,1,0.8,0.0,-1.0,1,0.0,0.34360100000003513
373,1,0.8,100.0,-1.0,-1,1.0,0.2907010000003538
374,1,0.8,6.25,-1.0,1,0.0,0.26040100000000166
375,1,0.8,12.5,-1.0,-1,1.0,0.31730100000004313
376,1,0.8,25.0,-1.0,-1,1.0,0.3208009999998467
377,1,0.8,100.0,-1.0,-1,1.0,0.35110100000019884
378,1,0.8,25.0,-1.0,-1,1.0,0.4143010000002505
379,1,0.8,25.0,1.0,1,1.0,0.19120100000009188
380,1,0.8,25.0,-1.0,-1,1.0,0.2977009999999609
381,1,0.8,6.25,-1.0,1,0.0,0.2812010000002374
382,1,0.8,25.0,-1.0,1,0.0,0.20800099999996746
383,1,0.8,100.0,1.0,1,1.0,0.29470000000037544
384,1,0.8,6.25,-1.0,1,0.0,0.3982009999995171
385,1,0.8,0.0,-1.0,1,0.0,0.08500099999992017
386,1,0.8,6.25,-1.0,-1,1.0,0.3983010000001741
387,1,0.8,12.5,-1.0,-1,1.0,0.2620010000000548
388,1,0.8,6.25,-1.0,-1,1.0,0.3886010000001079
389,1,0.8,6.25,-1.0,1,0.0,0.26550100000031307
390,1,0.8,12.5,-1.0,1,0.0,0.2956010000002607
391,1,0.8,25.0,-1.0,-1,1.0,0.3527009999997972
392,1,0.8,100.0,-1.0,-1,1.0,0.2689999999997781
393,1,0.8,12.5,-1.0,-1,1.0,0.3861010000000533
394,1,0.8,12.5,-1.0,-1,1.0,0.23260099999970407
395,1,0.8,0.0,-1.0,1,0.0,1.04620100000011
396,1,0.8,100.0,-1.0,-1,1.0,0.24610100000018065
397,1,0.8,100.0,-1.0,-1,1.0,0.3362999999999374
398,1,0.8,12.5,-1.0,-1,1.0,0.2929010000002563
399,1,0.8,12.5,-1.0,-1,1.0,0.3465000000001055
400,1,0.8,100.0,-1.0,-1,1.0,0.24970099999973172
401,1,0.8,12.5,-1.0,-1,1.0,0.3300010000002658
402,1,0.8,6.25,-1.0,1,0.0,0.4334009999997761
403,1,0.8,100.0,1.0,1,1.0,0.31360099999983504
404,1,0.8,100.0,1.0,1,1.0,0.12020099999972444
405,1,0.8,12.5,-1.0,-1,1.0,0.26710099999991144
406,1,0.8,6.25,1.0,1,1.0,0.28380099999958475
407,1,0.8,6.25,-1.0,1,0.0,0.2674010000000635
408,1,0.8,12.5,-1.0,-1,1.0,0.2975010000000111
409,1,0.8,100.0,-1.0,-1,1.0,0.2510000000002037
410,1,0.8,25.0,-1.0,-1,1.0,0.24440099999947051
411,1,0.8,6.25,-1.0,-1,1.0,0.28800100000034945
412,1,0.2,6.25,1.0,-1,0.0,0.2777009999999791
413,1,0.2,25.0,1.0,1,1.0,0.2515010000001894
414,1,0.2,25.0,1.0,1,1.0,0.2479009999997288
415,1,0.2,12.5,-1.0,1,0.0,0.2415009999999711
416,1,0.2,25.0,1.0,1,1.0,0.23150099999975282
417,1,0.2,100.0,-1.0,-1,1.0,0.31830100000024686
418,1,0.2,12.5,1.0,1,1.0,0.22490100000004531
419,1,0.2,25.0,-1.0,-1,1.0,0.2750999999998385
420,1,0.2,6.25,1.0,1,1.0,0.47190100000034363
421,1,0.2,6.25,-1.0,-1,1.0,0.5587010000003829
422,1,0.2,6.25,-1.0,-1,1.0,0.4490009999999529
423,1,0.2,6.25,-1.0,1,0.0,1.0291010000000824
424,1,0.2,6.25,1.0,1,1.0,0.20890099999996892
425,1,0.2,0.0,1.0,1,1.0,0.24929999999994834
426,1,0.2,12.5,1.0,1,1.0,0.2561009999999442
427,1,0.2,12.5,1.0,1,1.0,0.41610099999979866
428,1,0.2,6.25,-1.0,-1,1.0,0.279500999999982
429,1,0.2,0.0,1.0,-1,0.0,0.5428009999995993
430,1,0.2,100.0,1.0,1,1.0,0.36620099999981903
431,1,0.2,100.0,1.0,1,1.0,0.25310099999978775
432,1,0.2,12.5,1.0,1,1.0,0.24660099999982776
433,1,0.2,0.0,1.0,1,1.0,0.24670100000003004
434,1,0.2,6.25,1.0,1,1.0,0.2732009999999718
435,1,0.2,25.0,1.0,1,1.0,0.380301000000145
436,1,0.2,6.25,1.0,1,1.0,0.2868009999997412
437,1,0.2,12.5,1.0,1,1.0,0.2672010000001137
438,1,0.2,6.25,-1.0,1,0.0,0.27700099999992744
439,1,0.2,25.0,1.0,1,1.0,0.21400099999982558
440,1,0.2,0.0,1.0,1,1.0,0.26390100000025996
441,1,0.2,100.0,1.0,1,1.0,0.2308010000001559
442,1,0.8,100.0,-1.0,-1,1.0,0.37730099999998856
443,1,0.8,100.0,-1.0,-1,1.0,0.28090100000008533
444,1,0.8,100.0,-1.0,-1,1.0,0.2974010000002636
445,1,0.8,0.0,-1.0,1,0.0,0.33100100000001476
446,1,0.8,100.0,-1.0,-1,1.0,0.38100100000019665
447,1,0.8,100.0,-1.0,-1,1.0,0.45120099999940066
448,1,0.8,12.5,1.0,1,1.0,0.2513010000002396
449,1,0.8,6.25,-1.0,-1,1.0,0.4013999999997395
450,1,0.8,0.0,-1.0,1,0.0,0.11149999999997817
451,1,0.8,0.0,-1.0,1,0.0,0.10850100000016027
452,1,0.8,25.0,1.0,1,1.0,0.26840100000026723
453,1,0.8,25.0,-1.0,-1,1.0,0.2487010000004375
454,1,0.8,0.0,-1.0,1,0.0,0.25530099999969025
455,1,0.8,12.5,-1.0,-1,1.0,0.292500999999902
456,1,0.8,25.0,-1.0,-1,1.0,0.3321000000000822
457,1,0.8,100.0,-1.0,-1,1.0,0.30890099999987797
458,1,0.8,100.0,-1.0,-1,1.0,0.3323009999999158
459,1,0.8,6.25,-1.0,-1,1.0,0.35920000000032815
460,1,0.8,100.0,1.0,1,1.0,0.31590099999948507
461,1,0.8,100.0,-1.0,-1,1.0,0.3629009999999653
462,1,0.8,12.5,-1.0,-1,1.0,0.5926009999998314
463,1,0.8,0.0,-1.0,1,0.0,0.26300099999980375
464,1,0.8,6.25,-1.0,1,0.0,0.5496009999997113
465,1,0.8,25.0,-1.0,1,0.0,0.4499009999994996
466,1,0.8,25.0,1.0,1,1.0,0.3031999999998334
467,1,0.8,6.25,-1.0,1,0.0,0.4301000000004933
468,1,0.8,6.25,-1.0,-1,1.0,2.7236009999996895
469,1,0.8,0.0,1.0,1,1.0,0.6137009999997645
470,1,0.8,25.0,-1.0,-1,1.0,0.3635999999996784
471,1,0.8,0.0,1.0,1,1.0,0.27719999999999345
472,1,0.8,12.5,-1.0,-1,1.0,0.2670010000001639
473,1,0.8,100.0,1.0,1,1.0,0.2642009999999573
474,1,0.8,25.0,-1.0,1,0.0,0.25070099999993545
475,1,0.8,25.0,1.0,1,1.0,0.2077009999998154
476,1,0.2,25.0,1.0,1,1.0,0.21430099999997765
477,1,0.2,6.25,1.0,1,1.0,0.2478009999999813
478,1,0.2,12.5,1.0,1,1.0,0.22100099999988743
479,1,0.2,6.25,1.0,1,1.0,0.2147000000004482
480,1,0.2,6.25,-1.0,-1,1.0,0.3179009999998925
481,1,0.2,25.0,1.0,1,1.0,0.39830099999971935
482,1,0.2,100.0,-1.0,-1,1.0,0.22470100000009552
483,1,0.2,6.25,1.0,1,1.0,0.3848000000002685
484,1,0.2,25.0,1.0,1,1.0,0.3048009999997703
485,1,0.2,100.0,1.0,1,1.0,0.23220099999980448
486,1,0.2,6.25,1.0,1,1.0,0.3084009999997761
487,1,0.2,12.5,1.0,1,1.0,0.35210100000040256
488,1,0.2,6.25,1.0,-1,0.0,0.33520099999986996
489,1,0.2,6.25,1.0,-1,0.0,0.2855010000002949
490,1,0.2,0.0,1.0,1,1.0,0.41879999999991924
491,1,0.2,100.0,-1.0,-1,1.0,0.2858009999999922
492,1,0.2,100.0,-1.0,-1,1.0,0.34900100000004386
493,1,0.2,25.0,1.0,1,1.0,0.2658010000000104
494,1,0.2,25.0,1.0,1,1.0,0.24910100000033708
495,1,0.2,100.0,1.0,1,1.0,0.22289999999975407
496,1,0.2,100.0,1.0,1,1.0,0.20920100000012098
497,1,0.2,25.0,-1.0,-1,1.0,0.746400999999878
498,1,0.2,25.0,1.0,1,1.0,0.23610099999996237
499,1,0.2,25.0,1.0,1,1.0,0.2564009999996415
500,1,0.2,6.25,1.0,1,1.0,0.40310100000033344
501,1,0.2,0.0,1.0,1,1.0,0.23330099999975573
502,1,0.2,100.0,1.0,1,1.0,0.19980100000020684
503,1,0.2,0.0,1.0,1,1.0,0.2906009999996968
504,1,0.2,12.5,1.0,1,1.0,0.22030099999983577
505,1,0.2,25.0,1.0,1,1.0,0.32060100000035163
506,1,0.2,25.0,1.0,1,1.0,0.2506010000001879
507,1,0.8,12.5,-1.0,1,0.0,0.3442009999998845
508,1,0.8,25.0,1.0,1,1.0,0.2373010000001159
509,1,0.8,100.0,1.0,1,1.0,0.23090099999990343
510,1,0.8,12.5,-1.0,1,0.0,0.2441009999997732
511,1,0.8,25.0,-1.0,1,0.0,0.3443999999999505
512,1,0.8,0.0,-1.0,1,0.0,0.26440099999990707
513,1,0.8,100.0,1.0,1,1.0,0.25460100000009334
514,1,0.8,25.0,-1.0,1,0.0,0.12780100000009043
515,1,0.8,25.0,-1.0,-1,1.0,0.4313999999999396
516,1,0.8,100.0,-1.0,-1,1.0,0.34140000000024884
517,1,0.8,100.0,-1.0,-1,1.0,0.24850000000014916
518,1,0.8,25.0,-1.0,-1,1.0,0.26160099999970043
519,1,0.8,25.0,-1.0,-1,1.0,0.2386009999995622
520,1,0.8,100.0,-1.0,-1,1.0,0.2452010000001792
521,1,0.8,0.0,-1.0,-1,1.0,0.3421010000001843
522,1,0.8,12.5,-1.0,-1,1.0,0.2923009999999522
523,1,0.8,12.5,-1.0,-1,1.0,0.2489009999994778
524,1,0.8,100.0,-1.0,-1,1.0,0.22540100000014718
525,1,0.8,100.0,-1.0,-1,1.0,0.229001000000153
526,1,0.8,100.0,-1.0,-1,1.0,0.32900100000006205
527,1,0.8,0.0,-1.0,-1,1.0,0.3194010000001981
528,1,0.8,0.0,1.0,-1,0.0,0.4824009999997543
529,1,0.8,0.0,-1.0,1,0.0,0.24270100000012462
530,1,0.8,6.25,-1.0,1,0.0,0.282799999999952
531,1,0.8,25.0,-1.0,1,0.0,0.6195999999999913
532,1,0.8,6.25,-1.0,1,0.0,0.4362999999998465
533,1,0.8,6.25,-1.0,1,0.0,0.24640100000033271
534,1,0.8,12.5,-1.0,1,0.0,0.6930010000000948
535,1,0.8,0.0,-1.0,1,0.0,0.6666999999997643
536,1,0.2,100.0,1.0,1,1.0,0.2665009999996073
537,1,0.2,6.25,1.0,1,1.0,0.33009999999967476
538,1,0.2,100.0,1.0,1,1.0,0.19669999999996435
539,1,0.2,100.0,1.0,1,1.0,0.2702009999998154
540,1,0.2,100.0,1.0,1,1.0,0.217000999999982
541,1,0.2,6.25,-1.0,1,0.0,0.24719999999979336
542,1,0.2,25.0,1.0,1,1.0,0.25710099999969316
543,1,0.2,6.25,1.0,1,1.0,0.2907010000003538
544,1,0.2,25.0,1.0,1,1.0,0.2106010000002243
545,1,0.2,12.5,-1.0,-1,1.0,0.4509010000001581
546,1,0.2,6.25,1.0,1,1.0,0.3208009999998467
547,1,0.2,25.0,1.0,1,1.0,0.3078009999999267
548,1,0.2,6.25,1.0,1,1.0,0.28770099999974263
549,1,0.2,25.0,1.0,1,1.0,0.18480099999987942
550,1,0.2,12.5,1.0,1,1.0,0.25790100000040184
551,1,0.2,0.0,1.0,1,1.0,0.36180100000001403
552,1,0.2,12.5,-1.0,-1,1.0,0.4250000000001819
553,1,0.2,12.5,1.0,1,1.0,0.431800999999723
554,1,0.2,25.0,-1.0,-1,1.0,0.3851009999998496
555,1,0.2,100.0,1.0,1,1.0,0.28860100000019884
556,1,0.2,6.25,1.0,1,1.0,0.2518009999998867
557,1,0.2,100.0,1.0,1,1.0,0.3455010000002403
558,1,0.8,12.5,-1.0,-1,1.0,0.4519999999997708
559,1,0.8,25.0,-1.0,1,0.0,1.31570099999999
560,1,0.8,12.5,-1.0,1,0.0,0.5189000000000306
561,1,0.8,6.25,-1.0,1,0.0,0.71250099999952
562,1,0.8,12.5,-1.0,-1,1.0,0.34570099999973536
563,1,0.8,25.0,-1.0,-1,1.0,0.3061010000001261
564,1,0.8,100.0,1.0,1,1.0,0.25260100000014063
565,1,0.8,25.0,-1.0,-1,1.0,0.31280100000003586
566,1,0.8,100.0,-1.0,-1,1.0,0.2728009999996175
567,1,0.8,6.25,-1.0,-1,1.0,0.5332010000001901
568,1,0.8,12.5,-1.0,1,0.0,1.776401000000078
569,1,0.8,12.5,-1.0,-1,1.0,0.10660099999995509
570,1,0.8,6.25,-1.0,-1,1.0,0.8131009999997332
571,1,0.8,100.0,1.0,1,1.0,0.18340100000023085
572,1,0.8,25.0,-1.0,-1,1.0,0.26340099999970334
573,1,0.8,0.0,-1.0,1,0.0,0.5334010000001399
574,1,0.8,100.0,-1.0,-1,1.0,0.2636000000002241
575,1,0.8,12.5,1.0,1,1.0,1.257101000000148
576,1,0.8,25.0,-1.0,-1,1.0,0.3839010000001508
577,1,0.8,6.25,-1.0,1,0.0,0.3607010000000628
578,1,0.8,12.5,-1.0,-1,1.0,0.43390099999987797
579,1,0.8,100.0,-1.0,-1,1.0,0.21420100000023012
580,1,0.8,25.0,-1.0,1,0.0,0.1374010000004091
581,1,0.8,6.25,1.0,1,1.0,0.2411999999994805
582,1,0.8,25.0,-1.0,-1,1.0,0.27420100000017555
583,1,0.8,100.0,-1.0,-1,1.0,0.3980009999995673
584,1,0.8,6.25,-1.0,1,0.0,0.2544009999996888
585,1,0.8,12.5,-1.0,-1,1.0,0.46460099999967497
586,1,0.2,12.5,1.0,-1,0.0,0.36130099999991216
587,1,0.2,100.0,1.0,1,1.0,0.25500000000010914
588,1,0.2,12.5,1.0,1,1.0,0.3247000000001208
589,1,0.2,6.25,1.0,1,1.0,0.28850099999999657
590,1,0.2,100.0,1.0,1,1.0,0.25160100000039165
591,1,0.2,12.5,1.0,1,1.0,0.23860000000013315
592,1,0.2,12.5,1.0,1,1.0,0.19840100000010352
593,1,0.2,100.0,1.0,1,1.0,0.20870100000001912
594,1,0.2,100.0,-1.0,-1,1.0,0.2686009999997623
595,1,0.2,0.0,1.0,1,1.0,0.3190010000002985
596,1,0.2,6.25,1.0,1,1.0,0.2421009999998205
597,1,0.2,6.25,1.0,1,1.0,0.2424009999995178
598,1,0.2,6.25,1.0,1,1.0,0.2857010000002447
599,1,0.2,6.25,-1.0,1,0.0,0.2160009999997783
600,1,0.2,0.0,1.0,1,1.0,0.0792009999995571
601,1,0.2,25.0,1.0,1,1.0,0.16970099999980448
602,1,0.2,100.0,1.0,1,1.0,0.2160009999997783
603,1,0.2,6.25,1.0,1,1.0,0.329801000000316
604,1,0.2,0.0,1.0,1,1.0,0.26620099999991
605,1,0.2,0.0,1.0,1,1.0,0.2734009999999216
606,1,0.2,100.0,1.0,1,1.0,0.25980100000015227
607,1,0.2,100.0,1.0,1,1.0,0.2101009999996677
608,1,0.2,12.5,1.0,1,1.0,0.24320100000022649
609,1,0.2,0.0,1.0,1,1.0,0.2601009999998496
610,1,0.2,6.25,1.0,1,1.0,0.28340099999968515
611,1,0.2,12.5,1.0,1,1.0,0.21050000000013824
612,1,0.2,25.0,1.0,1,1.0,0.23030100000005405
613,1,0.2,25.0,-1.0,-1,1.0,0.39720000000033906
614,1,0.2,25.0,1.0,1,1.0,0.09720100000004095
615,1,0.2,0.0,1.0,-1,0.0,0.3141009999999369
616,1,0.2,100.0,1.0,1,1.0,0.2439009999998234
617,1,0.2,6.25,-1.0,1,0.0,8.950901000000158
618,1,0.2,6.25,1.0,1,1.0,0.2409010000001217
619,1,0.2,25.0,1.0,1,1.0,0.22800099999994927
620,1,0.2,12.5,-1.0,-1,1.0,0.3245009999996
621,1,0.2,25.0,1.0,1,1.0,0.2547999999997046
622,1,0.2,12.5,1.0,1,1.0,0.24790100000018356
623,1,0.2,25.0,-1.0,1,0.0,0.37820100000044476
624,1,0.2,0.0,1.0,1,1.0,0.28150100000038947
625,1,0.2,12.5,1.0,1,1.0,0.23480100000006132
626,1,0.2,6.25,1.0,1,1.0,0.30150099999991653
627,1,0.2,100.0,1.0,1,1.0,0.19540100000040184
628,1,0.2,25.0,-1.0,1,0.0,0.29170099999964805
629,1,0.2,0.0,1.0,1,1.0,0.1922010000002956
630,1,0.2,100.0,1.0,1,1.0,0.19530099999974482
631,1,0.2,0.0,-1.0,1,0.0,0.26210100000025705
632,1,0.2,12.5,-1.0,1,0.0,0.4555000000000291
633,1,0.2,100.0,1.0,1,1.0,0.1461010000002716
634,1,0.2,12.5,1.0,1,1.0,0.2557010000000446
635,1,0.2,12.5,1.0,1,1.0,0.24600099999997838
636,1,0.2,100.0,1.0,1,1.0,0.2391010000001188
637,1,0.2,0.0,1.0,1,1.0,0.27950099999952727
638,1,0.2,6.25,-1.0,1,0.0,0.3493009999997412
639,1,0.8,6.25,1.0,1,1.0,0.2395010000000184
640,1,0.8,6.25,-1.0,1,0.0,0.21610099999998056
641,1,0.8,100.0,-1.0,-1,1.0,0.3732010000003356
642,1,0.8,0.0,-1.0,1,0.0,0.24630100000013044
643,1,0.8,6.25,-1.0,-1,1.0,0.34310099999993326
644,1,0.8,6.25,-1.0,1,0.0,0.1930010000000948
645,1,0.8,0.0,-1.0,-1,1.0,0.4767010000000482
646,1,0.8,100.0,-1.0,-1,1.0,0.3031999999998334
647,1,0.8,100.0,-1.0,-1,1.0,0.2202009999996335
648,1,0.8,100.0,-1.0,-1,1.0,0.26020100000005186
649,1,0.8,100.0,-1.0,-1,1.0,0.3103009999999813
650,1,0.8,12.5,1.0,1,1.0,0.26020100000005186
651,1,0.8,0.0,-1.0,1,0.0,0.24730099999987942
652,1,0.8,0.0,-1.0,1,0.0,0.40380099999993035
653,1,0.8,6.25,-1.0,-1,1.0,0.2808010000003378
654,1,0.8,25.0,-1.0,-1,1.0,0.26410100000020975
655,1,0.8,12.5,1.0,1,1.0,0.28430100000014136
656,1,0.8,6.25,-1.0,-1,1.0,0.20080099999995582
657,1,0.8,6.25,-1.0,-1,1.0,0.2814010000001872
658,1,0.8,25.0,1.0,1,1.0,0.22440099999994345
659,1,0.8,25.0,-1.0,-1,1.0,0.2846009999998387
660,1,0.8,6.25,-1.0,-1,1.0,0.33450100000027305
661,1,0.8,0.0,1.0,-1,0.0,0.364900999999918
662,1,0.8,100.0,-1.0,-1,1.0,0.2582009999996444
663,1,0.8,25.0,-1.0,-1,1.0,0.24180099999966842
664,1,0.8,0.0,-1.0,-1,1.0,0.31840100000044913
665,1,0.8,12.5,-1.0,-1,1.0,0.21880099999998492
666,1,0.8,25.0,-1.0,-1,1.0,0.23500100000001112
667,1,0.8,12.5,-1.0,-1,1.0,0.31570099999953527
668,1,0.8,100.0,-1.0,-1,1.0,0.2820010000000366
669,1,0.8,100.0,-1.0,-1,1.0,0.24560100000007878
670,1,0.8,12.5,-1.0,-1,1.0,0.31550100000049497
671,1,0.8,25.0,-1.0,-1,1.0,0.23250099999995655
672,1,0.8,6.25,-1.0,-1,1.0,0.2757010000000264
673,1,0.8,0.0,1.0,-1,0.0,0.2960010000001603
674,1,0.8,6.25,-1.0,-1,1.0,0.2626010000003589
675,1,0.8,100.0,-1.0,-1,1.0,0.2897010000001501
676,1,0.8,6.25,-1.0,1,0.0,0.41620000000011714
677,1,0.8,25.0,1.0,1,1.0,0.2899010000000999
678,1,0.8,6.25,-1.0,-1,1.0,0.3563010000002578
679,1,0.8,12.5,-1.0,1,0.0,0.2165010000003349
680,1,0.8,6.25,-1.0,-1,1.0,0.25310099999978775
681,1,0.8,100.0,-1.0,-1,1.0,0.22350099999948725
682,1,0.8,100.0,-1.0,-1,1.0,0.240099999999984
683,1,0.8,12.5,-1.0,-1,1.0,0.2602010000005066
684,1,0.8,12.5,-1.0,1,0.0,0.27680000000009386
685,1,0.8,25.0,-1.0,-1,1.0,0.2638999999999214
686,1,0.2,6.25,-1.0,1,0.0,0.300300999999763
687,1,0.2,100.0,1.0,1,1.0,0.2506010000001879
688,1,0.2,25.0,1.0,1,1.0,0.2638010000000577
689,1,0.2,12.5,-1.0,1,0.0,0.31080100000008315
690,1,0.2,0.0,-1.0,1,0.0,0.36720000000013897
691,1,0.2,0.0,1.0,1,1.0,0.30440100000032544
692,1,0.2,12.5,1.0,1,1.0,0.2674010000000635
693,1,0.2,25.0,1.0,1,1.0,0.20780100000001767
694,1,0.2,100.0,1.0,1,1.0,0.23130100000025777
695,1,0.2,100.0,1.0,1,1.0,0.25489999999990687
696,1,0.2,12.5,-1.0,-1,1.0,0.311301000000185
697,1,0.2,6.25,-1.0,1,0.0,0.4247009999999136
698,1,0.2,6.25,1.0,-1,0.0,0.6113009999999122
699,1,0.2,25.0,1.0,1,1.0,0.3181009999998423
700,1,0.2,0.0,-1.0,1,0.0,0.2248010000002978
701,1,0.2,100.0,1.0,1,1.0,0.24520099999972444
702,1,0.2,0.0,1.0,1,1.0,0.291501000000153
703,1,0.2,12.5,1.0,1,1.0,0.265201000000161
704,1,0.2,6.25,1.0,-1,0.0,0.44850099999985105
705,1,0.2,6.25,1.0,1,1.0,0.2718009999998685
706,1,0.2,0.0,-1.0,-1,1.0,1.8418010000000322
707,1,0.2,25.0,-1.0,-1,1.0,0.2856010000000424
708,1,0.2,0.0,-1.0,1,0.0,0.3520010000002003
709,1,0.2,25.0,-1.0,-1,1.0,0.2759000000000924
710,1,0.2,25.0,1.0,1,1.0,0.2623009999997521
711,1,0.2,12.5,1.0,1,1.0,0.20930100000032326
712,1,0.2,100.0,1.0,1,1.0,0.23250099999995655
713,1,0.2,0.0,1.0,1,1.0,0.25930099999959566
714,1,0.2,100.0,1.0,1,1.0,0.4127010000001974
715,1,0.8,100.0,-1.0,1,0.0,0.7963009999998576
716,1,0.8,6.25,-1.0,1,0.0,0.23270099999990634
717,1,0.8,0.0,1.0,-1,0.0,0.21950099999958184
718,1,0.8,6.25,-1.0,1,0.0,0.5762009999998554
719,1,0.8,25.0,-1.0,-1,1.0,0.23990099999946324
720,1,0.8,25.0,-1.0,-1,1.0,0.2531999999996515
721,1,0.8,25.0,-1.0,-1,1.0,0.23310100000026068
722,1,0.8,100.0,-1.0,-1,1.0,0.23320099999955346
723,1,0.8,0.0,-1.0,-1,1.0,0.2670010000001639
724,1,0.8,6.25,-1.0,-1,1.0,0.2535010000001421
725,1,0.8,6.25,-1.0,-1,1.0,0.2938010000002578
726,1,0.8,25.0,-1.0,-1,1.0,0.31020100000023376
727,1,0.8,25.0,-1.0,-1,1.0,0.29400100000020757
728,1,0.8,100.0,-1.0,-1,1.0,0.2869009999994887
729,1,0.8,100.0,1.0,1,1.0,0.2941009999999551
730,1,0.8,6.25,-1.0,1,0.0,0.35710100000005696
731,1,0.8,6.25,-1.0,-1,1.0,0.4708009999994829
732,1,0.8,25.0,-1.0,-1,1.0,0.283900000000358
733,1,0.8,0.0,-1.0,-1,1.0,0.3042009999999209
734,1,0.8,12.5,-1.0,-1,1.0,0.24749999999994543
735,1,0.8,0.0,-1.0,-1,1.0,0.5844010000000708
736,1,0.8,12.5,-1.0,-1,1.0,0.3742010000000846
737,1,0.8,6.25,-1.0,-1,1.0,0.28130100000043967
738,1,0.8,25.0,-1.0,-1,1.0,0.26770100000021557
739,1,0.8,25.0,-1.0,-1,1.0,0.24810100000013335
740,1,0.8,6.25,-1.0,-1,1.0,0.20130100000005768
741,1,0.8,25.0,-1.0,-1,1.0,0.26830100000006496
742,1,0.8,25.0,-1.0,-1,1.0,0.29150099999969825
743,1,0.8,100.0,-1.0,-1,1.0,0.2417009999999209
744,1,0.8,12.5,1.0,-1,0.0,0.4082999999995991
745,1,0.8,100.0,1.0,1,1.0,0.3020010000000184
746,1,0.8,100.0,-1.0,-1,1.0,0.3718010000002323
747,1,0.8,0.0,1.0,1,1.0,0.3521009999999478
748,1,0.8,100.0,1.0,1,1.0,0.23870099999976446
749,1,0.8,6.25,1.0,1,1.0,0.5155009999998583
750,1,0.8,6.25,-1.0,-1,1.0,0.9254009999999653
751,1,0.8,25.0,-1.0,-1,1.0,0.25920099999984814
752,1,0.8,0.0,-1.0,-1,1.0,0.2490010000001348
753,1,0.8,0.0,-1.0,1,0.0,0.296100000000024
754,1,0.8,6.25,-1.0,-1,1.0,0.2925000000000182
755,1,0.8,100.0,-1.0,-1,1.0,0.2595010000000002
756,1,0.8,6.25,-1.0,-1,1.0,0.2793010000000322
757,1,0.8,12.5,1.0,1,1.0,0.6496010000000751
758,1,0.8,12.5,1.0,1,1.0,0.21950100000003658
759,1,0.8,6.25,-1.0,1,0.0,0.32310099999995145
760,1,0.8,0.0,1.0,1,1.0,0.21960100000023886
761,1,0.8,100.0,-1.0,-1,1.0,0.2702009999998154
762,1,0.8,100.0,1.0,1,1.0,0.23310099999980594
763,1,0.8,0.0,-1.0,1,0.0,0.36680100000012317
764,1,0.8,0.0,-1.0,1,0.0,0.23660100000006423
765,1,0.8,25.0,-1.0,1,0.0,0.11380100000042148
766,1,0.8,0.0,-1.0,1,0.0,5.9569009999995615
767,1,0.8,12.5,1.0,1,1.0,6.50050100000135
768,1,0.8,12.5,-1.0,1,0.0,0.23070100000040838
769,1,0.8,25.0,-1.0,-1,1.0,0.25470100000075035
770,1,0.8,100.0,-1.0,-1,1.0,0.29410100000040984
771,1,0.8,0.0,-1.0,1,0.0,2.1277009999994334
772,1,0.8,12.5,-1.0,-1,1.0,8.984199999999873
773,1,0.8,12.5,1.0,1,1.0,0.3982010000008813
774,1,0.8,0.0,-1.0,1,0.0,0.5285010000015973
775,1,0.8,12.5,-1.0,1,0.0,1.0346010000002934
776,1,0.8,100.0,1.0,1,1.0,0.40180099999997765
777,1,0.8,100.0,-1.0,1,0.0,0.6448010000003705
778,1,0.8,12.5,-1.0,1,0.0,0.2250000000003638
779,1,0.8,6.25,1.0,1,1.0,0.2317010000006121
780,1,0.8,12.5,-1.0,1,0.0,0.23860100000001694
781,1,0.8,100.0,-1.0,1,0.0,6.20520100000067
782,1,0.8,0.0,-1.0,-1,1.0,3.7756010000011884
783,1,0.8,25.0,-1.0,1,0.0,3.0823010000003705
784,1,0.8,100.0,-1.0,1,0.0,0.20939999999973224
785,1,0.8,6.25,1.0,1,1.0,1.925901000000522
786,1,0.8,6.25,-1.0,1,0.0,0.3762010000000373
787,1,0.8,6.25,-1.0,1,0.0,3.1726010000002134
788,1,0.8,100.0,-1.0,-1,1.0,2.849701000001005
789,1,0.8,6.25,-1.0,1,0.0,0.3129010000002381
790,1,0.8,100.0,-1.0,1,0.0,2.6469010000009803
791,1,0.8,12.5,-1.0,1,0.0,0.21990100000039092
792,1,0.8,0.0,-1.0,1,0.0,2.7467010000009395
793,1,0.8,100.0,-1.0,1,0.0,11.983500999999706
794,1,0.8,12.5,-1.0,1,0.0,10.244001000000935
795,1,0.8,6.25,-1.0,1,0.0,4.737401000000318
796,1,0.8,6.25,-1.0,1,0.0,3.764401000000362
797,1,0.8,0.0,-1.0,1,0.0,0.6275010000008479
798,1,0.8,100.0,-1.0,-1,1.0,0.4281009999995149
799,1,0.8,0.0,-1.0,-1,1.0,6.971201000000292
800,1,0.8,6.25,1.0,-1,0.0,1.5549010000013368
801,1,0.8,25.0,-1.0,-1,1.0,0.4515010000004622
802,1,0.8,6.25,-1.0,-1,1.0,4.155101000001196
803,1,0.8,6.25,-1.0,-1,1.0,14.091701000000285
804,1,0.8,100.0,1.0,1,1.0,1.239001000000826
805,1,0.8,25.0,1.0,1,1.0,0.3921010000012757
806,1,0.8,100.0,1.0,1,1.0,0.33900100000028033
807,1,0.8,100.0,-1.0,-1,1.0,0.34560099999998783
808,1,0.8,6.25,-1.0,-1,1.0,10.515801000000465
809,1,0.8,100.0,-1.0,-1,1.0,0.4659010000004855
810,1,0.8,0.0,-1.0,1,0.0,17.37970100000075
811,1,0.8,12.5,1.0,1,1.0,8.396401000000878
812,1,0.8,6.25,1.0,-1,0.0,9.330101000000468
813,1,0.2,12.5,1.0,1,1.0,0.32380100000136736
814,1,0.2,6.25,-1.0,1,0.0,0.5237010000009832
815,1,0.2,25.0,1.0,1,1.0,0.3403010000001814
816,1,0.2,25.0,1.0,1,1.0,0.48380100000122184
817,1,0.2,6.25,1.0,1,1.0,0.44700100000136445
818,1,0.2,25.0,1.0,1,1.0,0.4541010000002643
819,1,0.2,0.0,1.0,1,1.0,0.4140010000010079
820,1,0.2,6.25,1.0,1,1.0,0.33080100000006496
821,1,0.2,0.0,1.0,1,1.0,0.46730100000058883
822,1,0.2,6.25,1.0,1,1.0,0.35770099999990634
823,1,0.2,0.0,1.0,1,1.0,0.3009010000005219
824,1,0.2,0.0,1.0,1,1.0,0.42160100000000966
825,1,0.2,100.0,1.0,1,1.0,0.3910009999999602
826,1,0.2,25.0,1.0,1,1.0,0.4313010000005306
827,1,0.2,6.25,1.0,1,1.0,3.7180000000007567
828,1,0.2,6.25,-1.0,1,0.0,0.4049010000007911
1,2,0.5,6.25,-1.0,-1,1.0,0.5846999999999998
2,2,0.5,25.0,1.0,1,1.0,0.34690000000000065
3,2,0.5,100.0,1.0,1,1.0,0.30870000000000175
4,2,0.5,0.0,1.0,-1,0.0,0.2547990000000002
5,2,0.5,100.0,1.0,1,1.0,0.257200000000001
6,2,0.5,12.5,-1.0,-1,1.0,0.27449999999999974
7,2,0.5,0.0,-1.0,-1,1.0,0.5973000000000006
8,2,0.5,6.25,-1.0,1,0.0,38.628299999999996
9,2,0.5,0.0,-1.0,-1,1.0,0.3085000000000093
10,2,0.5,12.5,-1.0,-1,1.0,0.24379999999999313
11,2,0.5,0.0,1.0,-1,0.0,0.2664999999999935
12,2,0.5,6.25,1.0,-1,0.0,0.42310000000000514
13,2,0.5,12.5,1.0,-1,0.0,0.7325000000000159
14,2,0.5,100.0,-1.0,-1,1.0,0.23230000000000928
15,2,0.5,12.5,1.0,-1,0.0,0.36689900000001785
16,2,0.5,0.0,-1.0,-1,1.0,0.26479999999999393
17,2,0.5,12.5,-1.0,-1,1.0,0.23739999999999384
18,2,0.5,12.5,1.0,-1,0.0,0.2272999999999996
19,2,0.5,12.5,1.0,1,1.0,1.1041990000000084
20,2,0.5,0.0,1.0,-1,0.0,0.23030000000001394
21,2,0.5,100.0,1.0,1,1.0,0.30450000000000443
22,2,0.5,100.0,1.0,1,1.0,0.3185000000000002
23,2,0.5,100.0,1.0,1,1.0,0.24610000000001264
24,2,0.5,12.5,1.0,1,1.0,0.2950000000000159
25,2,0.5,25.0,1.0,1,1.0,0.29819999999998004
26,2,0.5,100.0,-1.0,-1,1.0,0.24559999999999604
27,2,0.5,25.0,1.0,1,1.0,0.20980000000000132
28,2,0.5,25.0,-1.0,-1,1.0,0.8543000000000234
29,2,0.5,6.25,-1.0,-1,1.0,0.45820000000000505
30,2,0.5,100.0,1.0,1,1.0,0.8343000000000131
31,2,0.5,100.0,1.0,1,1.0,0.24339999999997985
32,2,0.5,25.0,1.0,1,1.0,0.2803000000000111
33,2,0.5,12.5,-1.0,-1,1.0,0.2787999999999897
34,2,0.5,25.0,-1.0,-1,1.0,0.2422990000000027
35,2,0.5,25.0,1.0,1,1.0,0.273900000000026
36,2,0.5,12.5,1.0,1,1.0,0.23550000000000182
37,2,0.5,6.25,1.0,1,1.0,2.5492000000000132
38,2,0.5,12.5,1.0,1,1.0,0.24209999999999354
39,2,0.5,100.0,-1.0,-1,1.0,0.2571000000000083
40,2,0.5,6.25,-1.0,-1,1.0,0.3288000000000011
41,2,0.5,0.0,1.0,-1,0.0,0.47459999999998104
42,2,0.5,100.0,1.0,1,1.0,0.2989000000000033
43,2,0.5,100.0,1.0,1,1.0,0.25219999999998777
44,2,0.5,100.0,1.0,1,1.0,0.4600990000000138
45,2,0.5,100.0,-1.0,-1,1.0,0.2733000000000061
46,2,0.5,6.25,-1.0,1,0.0,0.20220000000000482
47,2,0.5,25.0,1.0,1,1.0,0.2329000000000292
48,2,0.5,25.0,1.0,1,1.0,0.24689999999998236
49,2,0.5,6.25,-1.0,1,0.0,0.23089999999999122
50,2,0.5,12.5,1.0,1,1.0,0.24790000000001555
51,2,0.5,12.5,1.0,1,1.0,0.3077000000000112
52,2,0.5,0.0,1.0,1,1.0,0.30819999999999936
53,2,0.5,25.0,1.0,1,1.0,0.25679999999996994
54,2,0.5,100.0,-1.0,-1,1.0,0.20920000000000982
55,2,0.5,0.0,1.0,1,1.0,0.24830000000002883
56,2,0.5,12.5,-1.0,-1,1.0,0.34709900000001426
57,2,0.5,25.0,1.0,1,1.0,0.31380000000001473
58,2,0.5,6.25,-1.0,-1,1.0,0.49389999999999645
59,2,0.5,25.0,-1.0,-1,1.0,0.29179899999996906
60,2,0.5,12.5,-1.0,-1,1.0,0.13700000000000045
61,2,0.5,25.0,1.0,1,1.0,0.29049900000001116
62,2,0.5,0.0,1.0,1,1.0,0.32529999999997017
63,2,0.5,25.0,1.0,1,1.0,0.18999999999999773
64,2,0.5,0.0,-1.0,-1,1.0,0.19839999999999236
65,2,0.5,12.5,1.0,1,1.0,0.3464000000000169
66,2,0.5,12.5,-1.0,-1,1.0,0.25949900000000525
67,2,0.5,100.0,-1.0,-1,1.0,0.22199899999998252
68,2,0.5,0.0,-1.0,-1,1.0,0.2346989999999778
69,2,0.5,100.0,-1.0,-1,1.0,0.22930000000002337
70,2,0.5,25.0,-1.0,-1,1.0,0.37880000000001246
71,2,0.5,100.0,-1.0,-1,1.0,0.1593000000000302
72,2,0.5,100.0,1.0,1,1.0,0.5095999999999776
73,2,0.5,25.0,-1.0,-1,1.0,0.4944000000000415
74,2,0.5,0.0,1.0,-1,0.0,0.2551990000000046
75,2,0.5,100.0,1.0,1,1.0,0.2347000000000321
76,2,0.5,6.25,-1.0,-1,1.0,0.5815999999999804
77,2,0.5,100.0,-1.0,-1,1.0,0.2814000000000192
78,2,0.5,25.0,1.0,1,1.0,0.27389999999996917
79,2,0.5,0.0,-1.0,-1,1.0,0.35939899999999625
80,2,0.5,12.5,1.0,-1,0.0,0.12119999999998754
81,2,0.5,6.25,-1.0,1,0.0,0.1741000000000099
82,2,0.5,6.25,-1.0,-1,1.0,0.363900000000001
83,2,0.5,6.25,-1.0,-1,1.0,0.2470000000000141
84,2,0.5,12.5,-1.0,-1,1.0,0.19310000000001537
85,2,0.5,25.0,-1.0,-1,1.0,0.2108000000000061
86,2,0.5,6.25,-1.0,-1,1.0,0.25610000000000355
87,2,0.5,12.5,-1.0,-1,1.0,0.21369999999996026
88,2,0.5,6.25,1.0,-1,0.0,0.25839899999999716
89,2,0.5,0.0,-1.0,-1,1.0,0.4608000000000061
90,2,0.5,6.25,-1.0,-1,1.0,0.19249899999999798
91,2,0.2,100.0,-1.0,-1,1.0,0.5800990000000752
92,2,0.2,25.0,1.0,1,1.0,0.2088000000000534
93,2,0.2,100.0,-1.0,-1,1.0,0.11329999999998108
94,2,0.2,12.5,1.0,1,1.0,0.32370000000003074
95,2,0.2,12.5,1.0,1,1.0,0.28769999999997253
96,2,0.2,25.0,1.0,1,1.0,0.263499999999965
97,2,0.2,12.5,1.0,1,1.0,0.835599000000002
98,2,0.2,6.25,-1.0,1,0.0,0.3990999999999758
99,2,0.2,100.0,1.0,1,1.0,0.18380000000001928
100,2,0.2,12.5,-1.0,-1,1.0,0.22589899999996987
101,2,0.2,12.5,1.0,-1,0.0,0.09930000000002792
102,2,0.2,6.25,1.0,1,1.0,0.24740000000002738
103,2,0.2,100.0,1.0,1,1.0,0.21230000000002747
104,2,0.2,100.0,-1.0,-1,1.0,0.323599999999999
105,2,0.2,6.25,1.0,-1,0.0,0.5156000000000063
106,2,0.2,12.5,1.0,1,1.0,0.20819999999997663
107,2,0.2,6.25,-1.0,1,0.0,0.4538000000000011
108,2,0.2,6.25,-1.0,1,0.0,0.13599999999996726
109,2,0.2,25.0,1.0,1,1.0,0.23869999999999436
110,2,0.2,0.0,-1.0,1,0.0,0.2759999999999536
111,2,0.2,6.25,1.0,1,1.0,0.30119999999999436
112,2,0.2,100.0,1.0,1,1.0,0.2503999999998996
113,2,0.2,100.0,1.0,1,1.0,0.19610000000000127
114,2,0.2,0.0,1.0,-1,0.0,7.980099999999879
115,2,0.2,25.0,1.0,1,1.0,0.2139999999998281
116,2,0.2,100.0,1.0,1,1.0,0.17799999999988358
117,2,0.2,0.0,-1.0,-1,1.0,18.81409899999983
118,2,0.2,25.0,1.0,1,1.0,0.322699999999827
119,2,0.2,6.25,1.0,1,1.0,0.2980999999999767
120,2,0.2,6.25,1.0,1,1.0,0.2075999999999567
121,2,0.2,0.0,1.0,1,1.0,24.217599999999948
122,2,0.2,12.5,1.0,1,1.0,0.2944999999999709
123,2,0.2,25.0,1.0,1,1.0,0.258199999999988
124,2,0.2,100.0,1.0,1,1.0,0.23839999999995598
125,2,0.2,100.0,1.0,1,1.0,0.22099999999988995
126,2,0.2,0.0,1.0,1,1.0,0.29949999999996635
127,2,0.2,0.0,-1.0,1,0.0,0.30159900000001016
128,2,0.2,100.0,1.0,1,1.0,0.23539999999991323
129,2,0.2,12.5,1.0,1,1.0,0.20079999999995835
130,2,0.2,25.0,-1.0,-1,1.0,0.18989999999996598
131,2,0.2,0.0,1.0,-1,0.0,0.2256999999999607
132,2,0.2,6.25,1.0,-1,0.0,0.32829999999989923
133,2,0.8,25.0,-1.0,-1,1.0,0.250699999999938
134,2,0.8,0.0,-1.0,1,0.0,0.22640000000001237
135,2,0.8,25.0,1.0,1,1.0,0.2318999999998823
136,2,0.8,0.0,-1.0,1,0.0,1.7228000000000065
137,2,0.8,100.0,-1.0,-1,1.0,0.11580000000003565
138,2,0.8,6.25,-1.0,-1,1.0,0.28619899999989684
139,2,0.8,100.0,-1.0,-1,1.0,0.23979899999994814
140,2,0.8,12.5,-1.0,-1,1.0,0.24779999999987012
141,2,0.8,25.0,-1.0,-1,1.0,0.21889999999996235
142,2,0.8,0.0,-1.0,-1,1.0,0.25699999999994816
143,2,0.8,25.0,-1.0,-1,1.0,0.2502999999999247
144,2,0.8,100.0,-1.0,-1,1.0,0.2798000000000229
145,2,0.8,25.0,1.0,1,1.0,0.34140000000002146
146,2,0.8,0.0,1.0,1,1.0,1.6981999999999289
147,2,0.8,100.0,-1.0,-1,1.0,0.9936000000000149
148,2,0.8,12.5,-1.0,-1,1.0,0.5580999999999676
149,2,0.8,6.25,-1.0,-1,1.0,0.340799999999831
150,2,0.8,6.25,-1.0,1,0.0,0.20849999999995816
151,2,0.8,6.25,-1.0,-1,1.0,0.32979999999997744
152,2,0.8,100.0,-1.0,-1,1.0,0.24309999999991305
153,2,0.8,0.0,1.0,-1,0.0,0.3772999999999911
154,2,0.8,100.0,-1.0,-1,1.0,0.23869999999988067
155,2,0.8,0.0,1.0,1,1.0,0.2584999999999127
156,2,0.8,0.0,-1.0,-1,1.0,6.810399999999959
157,2,0.8,0.0,1.0,1,1.0,0.3637989999999718
158,2,0.8,12.5,-1.0,-1,1.0,0.3082999999999174
159,2,0.8,6.25,-1.0,1,0.0,0.24149999999997362
160,2,0.8,12.5,1.0,1,1.0,0.2660999999998239
161,2,0.8,100.0,-1.0,-1,1.0,0.20299999999997453
162,2,0.8,6.25,-1.0,1,0.0,0.3704000000000178
163,2,0.8,100.0,-1.0,-1,1.0,0.2778999999999314
164,2,0.8,25.0,-1.0,-1,1.0,0.19949900000005982
165,2,0.8,100.0,-1.0,-1,1.0,0.2380999999999176
166,2,0.8,6.25,1.0,-1,0.0,0.2585000000000264
167,2,0.8,100.0,-1.0,-1,1.0,0.19869999999991705
168,2,0.8,25.0,-1.0,-1,1.0,0.248299999999972
169,2,0.8,25.0,-1.0,-1,1.0,0.21069999999986067
170,2,0.8,0.0,1.0,-1,0.0,0.11449899999990976
171,2,0.8,12.5,-1.0,-1,1.0,0.2639999999998963
172,2,0.8,0.0,-1.0,-1,1.0,0.3007999999998674
173,2,0.8,0.0,-1.0,1,0.0,0.6689999999999827
174,2,0.8,0.0,-1.0,-1,1.0,0.24679900000000998
175,2,0.8,100.0,-1.0,-1,1.0,0.23739999999997963
176,2,0.8,100.0,1.0,1,1.0,0.2925999999999931
177,2,0.8,100.0,-1.0,-1,1.0,0.24709999999993215
178,2,0.8,25.0,1.0,1,1.0,0.22040000000004056
179,2,0.8,0.0,-1.0,-1,1.0,0.15230099999996582
180,2,0.8,0.0,-1.0,-1,1.0,0.24430099999995036
181,2,0.8,12.5,-1.0,-1,1.0,0.4456009999998969
182,2,0.8,25.0,1.0,1,1.0,0.4048009999999067
183,2,0.8,6.25,1.0,-1,0.0,0.47060099999998783
184,2,0.8,12.5,-1.0,1,0.0,0.2394010000000435
185,2,0.8,6.25,-1.0,-1,1.0,0.310600999999906
186,2,0.8,6.25,-1.0,-1,1.0,0.5789009999999735
187,2,0.8,100.0,-1.0,-1,1.0,0.22820099999989907
188,2,0.8,12.5,1.0,1,1.0,0.3532000000000153
189,2,0.8,6.25,1.0,1,1.0,0.25689999999997326
190,2,0.8,6.25,1.0,1,1.0,0.26369999999985794
191,2,0.8,25.0,-1.0,-1,1.0,0.6316009999999324
192,2,0.8,6.25,-1.0,-1,1.0,0.28040099999998347
193,2,0.8,100.0,-1.0,-1,1.0,0.2560009999999693
194,2,0.8,12.5,1.0,1,1.0,0.7610009999999647
195,2,0.8,0.0,-1.0,-1,1.0,0.09210099999995691
196,2,0.8,6.25,-1.0,-1,1.0,0.2521009999999251
197,2,0.8,6.25,-1.0,-1,1.0,0.21829999999999927
198,2,0.8,25.0,-1.0,-1,1.0,0.20990099999994527
199,2,0.8,12.5,-1.0,-1,1.0,0.31910099999993236
200,2,0.8,6.25,1.0,1,1.0,0.729099999999903
201,2,0.8,100.0,-1.0,-1,1.0,0.2958009999999831
202,2,0.8,12.5,1.0,1,1.0,0.1893009999998867
203,2,0.8,0.0,-1.0,1,0.0,0.3725000000001728
204,2,0.8,12.5,-1.0,-1,1.0,0.22280100000034508
205,2,0.8,100.0,-1.0,-1,1.0,0.2429010000003018
206,2,0.8,0.0,-1.0,1,0.0,0.09310100000016064
207,2,0.8,100.0,-1.0,-1,1.0,0.666501000000153
208,2,0.8,100.0,1.0,1,1.0,0.6837010000001555
209,2,0.8,25.0,1.0,1,1.0,0.5733010000001286
210,2,0.8,25.0,1.0,1,1.0,0.3304000000000542
211,2,0.8,100.0,1.0,1,1.0,0.21370100000012826
212,2,0.8,100.0,-1.0,-1,1.0,0.22750100000007478
213,2,0.8,12.5,-1.0,-1,1.0,0.18060100000002421
214,2,0.8,25.0,1.0,-1,0.0,0.3208009999998467
215,2,0.8,100.0,1.0,1,1.0,0.22080099999993763
216,2,0.8,0.0,1.0,-1,0.0,0.36100100000021484
217,2,0.8,100.0,-1.0,-1,1.0,0.22760100000004968
218,2,0.8,0.0,-1.0,1,0.0,0.36120099999993727
219,2,0.8,6.25,-1.0,-1,1.0,0.2976010000002134
220,2,0.8,0.0,-1.0,-1,1.0,0.8114009999999325
221,2,0.8,12.5,1.0,1,1.0,0.7680010000001403
222,2,0.8,12.5,-1.0,-1,1.0,0.2582999999999629
223,2,0.8,12.5,-1.0,-1,1.0,0.23820000000000618
224,2,0.8,100.0,-1.0,-1,1.0,0.1984010000003309
225,2,0.8,0.0,-1.0,1,0.0,1.3183010000000195
226,2,0.8,0.0,-1.0,-1,1.0,0.2620010000000548
227,2,0.8,12.5,-1.0,-1,1.0,0.21870100000001003
228,2,0.8,12.5,-1.0,1,0.0,0.3055010000000493
229,2,0.8,6.25,-1.0,-1,1.0,0.19210099999986596
230,2,0.8,12.5,1.0,-1,0.0,0.40550100000018574
231,2,0.2,100.0,1.0,1,1.0,0.24880000000007385
232,2,0.2,0.0,1.0,-1,0.0,0.10910100000023704
233,2,0.2,0.0,1.0,-1,0.0,0.2691010000000915
234,2,0.2,0.0,-1.0,-1,1.0,6.9092010000001665
235,2,0.2,0.0,1.0,1,1.0,1.0928010000000086
236,2,0.2,6.25,1.0,-1,0.0,0.11960100000010243
237,2,0.2,0.0,-1.0,-1,1.0,0.29280100000005405
238,2,0.2,12.5,1.0,1,1.0,0.35310000000026776
239,2,0.2,12.5,1.0,1,1.0,0.3564010000000053
240,2,0.2,25.0,-1.0,-1,1.0,0.17010100000015882
241,2,0.2,0.0,1.0,-1,0.0,0.12670100000013917
242,2,0.2,100.0,1.0,1,1.0,0.30680100000017774
243,2,0.2,12.5,-1.0,-1,1.0,0.26000100000010207
244,2,0.2,6.25,-1.0,-1,1.0,0.31720100000006823
245,2,0.2,6.25,1.0,-1,0.0,0.6171009999998205
246,2,0.2,25.0,-1.0,-1,1.0,0.24050100000022212
247,2,0.2,100.0,1.0,1,1.0,0.330400999999938
248,2,0.2,12.5,1.0,-1,0.0,0.2840009999999893
249,2,0.2,6.25,1.0,1,1.0,0.2872010000000955
250,2,0.2,100.0,-1.0,-1,1.0,0.15430100000003222
251,2,0.2,25.0,1.0,1,1.0,0.2941009999999551
252,2,0.2,25.0,1.0,1,1.0,0.2376009999998132
253,2,0.2,100.0,1.0,1,1.0,0.23110100000030798
254,2,0.2,25.0,1.0,1,1.0,0.29120100000000093
255,2,0.2,6.25,1.0,1,1.0,0.29100100000005114
256,2,0.2,12.5,-1.0,-1,1.0,0.33130099999993945
257,2,0.2,25.0,-1.0,-1,1.0,0.24820100000010825
258,2,0.2,6.25,1.0,1,1.0,0.2615009999999529
259,2,0.2,12.5,1.0,1,1.0,0.28480100000001585
260,2,0.2,0.0,1.0,-1,0.0,0.27850100000000566
261,2,0.2,6.25,1.0,1,1.0,0.26510099999995873
262,2,0.2,25.0,1.0,1,1.0,0.20849999999995816
263,2,0.2,25.0,1.0,1,1.0,0.2954010000000835
264,2,0.2,0.0,-1.0,1,0.0,0.36540100000001985
265,2,0.2,12.5,1.0,1,1.0,0.2553009999999176
266,2,0.2,0.0,-1.0,1,0.0,0.30890100000010534
267,2,0.2,100.0,-1.0,-1,1.0,0.26549999999997453
268,2,0.2,6.25,1.0,-1,0.0,0.16560000000004038
269,2,0.2,12.5,-1.0,-1,1.0,0.2658000000001266
270,2,0.2,6.25,-1.0,-1,1.0,0.29919999999992797
271,2,0.2,12.5,1.0,1,1.0,0.27580100000022867
272,2,0.2,25.0,1.0,1,1.0,0.28590100000019447
273,2,0.2,0.0,-1.0,1,0.0,0.34300099999995837
274,2,0.2,6.25,-1.0,1,0.0,0.2796010000001843
275,2,0.2,100.0,1.0,1,1.0,0.27290100000004713
276,2,0.2,25.0,1.0,1,1.0,0.23640100000011444
277,2,0.2,12.5,1.0,1,1.0,0.25640100000009625
278,2,0.2,25.0,1.0,1,1.0,0.30660100000022794
279,2,0.2,25.0,1.0,1,1.0,0.2632010000002083
280,2,0.2,25.0,1.0,1,1.0,0.26020100000027924
281,2,0.2,12.5,1.0,-1,0.0,0.4468010000000504
282,2,0.2,6.25,1.0,-1,0.0,0.4336009999999533
283,2,0.2,100.0,1.0,1,1.0,0.29360099999985323
284,2,0.2,25.0,1.0,1,1.0,0.2237009999998918
285,2,0.2,6.25,-1.0,-1,1.0,0.9503010000000813
286,2,0.2,0.0,1.0,-1,0.0,0.32720000000017535
287,2,0.2,25.0,1.0,1,1.0,0.22050100000001294
288,2,0.2,6.25,-1.0,-1,1.0,0.21420100000000275
289,2,0.2,100.0,1.0,1,1.0,0.3074010000000271
290,2,0.2,100.0,-1.0,-1,1.0,0.20080099999995582
291,2,0.2,25.0,1.0,1,1.0,0.2777009999999791
292,2,0.2,6.25,-1.0,-1,1.0,0.2510010000000875
293,2,0.2,6.25,1.0,-1,0.0,0.29110100000002603
294,2,0.2,25.0,1.0,1,1.0,0.2948010000002341
295,2,0.2,0.0,1.0,1,1.0,0.288101000000097
296,2,0.2,25.0,-1.0,-1,1.0,2.1014010000001235
297,2,0.2,12.5,1.0,1,1.0,0.25470000000018445
298,2,0.2,6.25,-1.0,-1,1.0,0.3283010000000104
299,2,0.2,25.0,1.0,1,1.0,0.3417010000000573
300,2,0.2,0.0,-1.0,-1,1.0,0.29520099999990634
301,2,0.2,6.25,1.0,-1,0.0,0.3185009999999693
302,2,0.2,12.5,1.0,1,1.0,0.2921000000001186
303,2,0.2,6.25,1.0,1,1.0,0.3054010000000744
304,2,0.2,25.0,1.0,1,1.0,0.25220100000001366
305,2,0.2,0.0,-1.0,1,0.0,2.0123009999999795
306,2,0.2,6.25,1.0,-1,0.0,0.30900100000008024
307,2,0.2,25.0,1.0,1,1.0,0.25250099999993836
308,2,0.2,100.0,1.0,1,1.0,0.2058999999999287
309,2,0.2,25.0,1.0,1,1.0,0.3758010000001377
310,2,0.2,25.0,1.0,1,1.0,0.3026999999999589
311,2,0.2,12.5,1.0,1,1.0,0.27620100000012826
312,2,0.2,25.0,1.0,1,1.0,0.26290100000005623
313,2,0.2,100.0,-1.0,1,0.0,0.31950000000006185
314,2,0.2,100.0,1.0,1,1.0,0.2531010000002425
315,2,0.2,100.0,1.0,1,1.0,0.263101000000006
316,2,0.2,0.0,1.0,1,1.0,0.3499000000001615
317,2,0.2,12.5,1.0,1,1.0,0.23990100000014536
318,2,0.8,0.0,-1.0,1,0.0,0.2468010000002323
319,2,0.8,0.0,-1.0,1,0.0,0.23000099999990198
320,2,0.8,100.0,-1.0,-1,1.0,0.263501000000133
321,2,0.8,12.5,-1.0,1,0.0,0.2735010000001239
322,2,0.8,6.25,1.0,1,1.0,0.2771010000001297
323,2,0.8,6.25,-1.0,1,0.0,0.8341000000000349
324,2,0.8,25.0,1.0,1,1.0,0.237201000000141
325,2,0.8,25.0,-1.0,-1,1.0,0.48400100000026214
326,2,0.8,25.0,1.0,1,1.0,0.2207010000001901
327,2,0.8,0.0,-1.0,1,0.0,0.31750099999999293
328,2,0.8,12.5,1.0,1,1.0,0.2177009999998063
329,2,0.8,12.5,-1.0,-1,1.0,0.28090100000008533
330,2,0.8,0.0,-1.0,1,0.0,0.2776010000000042
331,2,0.8,25.0,-1.0,-1,1.0,0.2878009999999449
332,2,0.8,100.0,-1.0,-1,1.0,0.25780100000019956
333,2,0.8,0.0,-1.0,-1,1.0,0.27820100000030834
334,2,0.8,0.0,-1.0,-1,1.0,0.25460099999986596
335,2,0.8,12.5,1.0,1,1.0,0.43140100000005077
336,2,0.8,12.5,-1.0,-1,1.0,0.28830100000004677
337,2,0.8,100.0,-1.0,-1,1.0,0.23170099999993
338,2,0.8,6.25,-1.0,-1,1.0,0.1450009999998656
339,2,0.8,25.0,-1.0,-1,1.0,0.10500100000012935
340,2,0.8,25.0,-1.0,-1,1.0,0.2617009999999027
341,2,0.8,6.25,1.0,1,1.0,0.3352010000003247
342,2,0.8,25.0,-1.0,-1,1.0,0.25190100000008897
343,2,0.8,6.25,-1.0,-1,1.0,0.2452010000001792
344,2,0.8,6.25,-1.0,1,0.0,0.4788010000002032
345,2,0.8,25.0,-1.0,-1,1.0,0.302400999999918
346,2,0.8,12.5,-1.0,-1,1.0,0.28240100000016355
347,2,0.8,0.0,-1.0,1,0.0,0.3358010000001741
348,2,0.8,25.0,-1.0,-1,1.0,0.2892010000000482
349,2,0.8,12.5,-1.0,-1,1.0,0.319501000000173
350,2,0.8,6.25,1.0,-1,0.0,0.15950100000009115
351,2,0.8,12.5,-1.0,-1,1.0,0.289400999999998
352,2,0.8,0.0,-1.0,1,0.0,0.9430010000000948
353,2,0.8,12.5,-1.0,-1,1.0,0.21620000000007167
354,2,0.8,100.0,1.0,1,1.0,0.2565010000002985
355,2,0.8,12.5,-1.0,-1,1.0,0.3032010000001719
356,2,0.8,25.0,-1.0,-1,1.0,0.26660100000003695
357,2,0.8,25.0,-1.0,-1,1.0,0.29670099999998456
358,2,0.8,12.5,-1.0,-1,1.0,0.4069010000000617
359,2,0.8,25.0,-1.0,-1,1.0,0.25690099999997074
360,2,0.8,6.25,1.0,-1,0.0,0.35370100000000093
361,2,0.8,0.0,-1.0,1,0.0,0.32710099999985687
362,2,0.8,12.5,-1.0,-1,1.0,0.2571010000001479
363,2,0.8,25.0,-1.0,-1,1.0,0.20060100000000602
364,2,0.8,25.0,-1.0,-1,1.0,0.28070099999990816
365,2,0.8,25.0,-1.0,-1,1.0,0.2775010000002567
366,2,0.8,25.0,-1.0,-1,1.0,0.26100099999985105
367,2,0.8,25.0,-1.0,-1,1.0,0.1142010000000937
368,2,0.8,6.25,-1.0,-1,1.0,0.3577010000001337
369,2,0.8,100.0,-1.0,-1,1.0,0.2411010000000715
370,2,0.8,25.0,-1.0,-1,1.0,0.24450100000012753
371,2,0.8,6.25,-1.0,-1,1.0,0.2713010000002214
372,2,0.8,25.0,-1.0,-1,1.0,0.2579009999999471
373,2,0.8,100.0,-1.0,-1,1.0,0.261400999999978
374,2,0.8,25.0,1.0,-1,0.0,0.30150099999991653
375,2,0.8,100.0,-1.0,-1,1.0,0.2583999999999378
376,2,0.8,100.0,-1.0,-1,1.0,0.2583009999998467
377,2,0.8,25.0,-1.0,-1,1.0,0.28840100000024904
378,2,0.8,12.5,-1.0,-1,1.0,0.25850100000002385
379,2,0.8,25.0,-1.0,-1,1.0,0.258701000000201
380,2,0.8,0.0,-1.0,-1,1.0,0.22200100000009115
381,2,0.8,0.0,-1.0,-1,1.0,0.2586010000002261
382,2,0.8,25.0,-1.0,-1,1.0,0.1489010000000235
383,2,0.8,0.0,-1.0,-1,1.0,3.3888010000000577
384,2,0.8,0.0,-1.0,-1,1.0,0.13900100000000748
385,2,0.8,25.0,-1.0,-1,1.0,0.22580100000004677
386,2,0.8,6.25,-1.0,-1,1.0,0.23910000000000764
387,2,0.8,12.5,1.0,1,1.0,0.31930099999999584
388,2,0.8,0.0,-1.0,-1,1.0,0.11259999999992942
389,2,0.8,6.25,-1.0,-1,1.0,0.2928010000002814
390,2,0.2,6.25,1.0,1,1.0,0.5163010000001123
391,2,0.2,0.0,1.0,-1,0.0,0.3665010000001985
392,2,0.2,6.25,1.0,1,1.0,0.33320100000014463
393,2,0.2,6.25,1.0,1,1.0,0.419901000000209
394,2,0.2,6.25,-1.0,1,0.0,0.3732009999998809
395,2,0.2,12.5,1.0,1,1.0,0.3200009999998201
396,2,0.2,0.0,-1.0,-1,1.0,0.3335010000000693
397,2,0.2,6.25,1.0,1,1.0,0.35690100000010716
398,2,0.2,25.0,1.0,1,1.0,0.8004010000001927
399,2,0.2,12.5,1.0,1,1.0,0.7972010000000864
400,2,0.2,12.5,1.0,1,1.0,0.15720100000021375
401,2,0.2,0.0,1.0,1,1.0,0.8975010000001475
402,2,0.2,6.25,1.0,1,1.0,1.170900999999958
403,2,0.2,0.0,1.0,-1,0.0,0.2210010000001148
404,2,0.2,6.25,-1.0,-1,1.0,0.514500999999882
405,2,0.2,12.5,1.0,1,1.0,0.31110100000000784
406,2,0.2,100.0,1.0,1,1.0,0.271300999999994
407,2,0.2,25.0,1.0,1,1.0,0.27140000000008513
408,2,0.2,0.0,1.0,1,1.0,0.3115010000001348
409,2,0.2,12.5,-1.0,-1,1.0,0.37160000000017135
410,2,0.2,100.0,1.0,1,1.0,0.22820100000012644
411,2,0.2,12.5,1.0,-1,0.0,0.2517009999999118
412,2,0.8,100.0,1.0,1,1.0,0.24840100000005805
413,2,0.8,6.25,-1.0,1,0.0,0.3153010000000904
414,2,0.8,25.0,-1.0,-1,1.0,0.27860100000020793
415,2,0.8,0.0,-1.0,-1,1.0,0.1121010000001661
416,2,0.8,100.0,-1.0,-1,1.0,0.2386010000002443
417,2,0.8,12.5,-1.0,-1,1.0,0.2820999999999003
418,2,0.8,25.0,-1.0,-1,1.0,0.19560099999989689
419,2,0.8,25.0,1.0,1,1.0,0.35590000000001965
420,2,0.8,6.25,1.0,1,1.0,0.5289999999999964
421,2,0.8,0.0,-1.0,-1,1.0,0.10920099999975719
422,2,0.8,25.0,-1.0,-1,1.0,0.24590000000034706
423,2,0.8,100.0,-1.0,-1,1.0,0.3161009999998896
424,2,0.8,25.0,-1.0,-1,1.0,0.3127999999996973
425,2,0.8,6.25,1.0,-1,0.0,0.11310099999991508
426,2,0.8,12.5,-1.0,-1,1.0,0.3596009999996568
427,2,0.8,12.5,1.0,-1,0.0,0.41650099999969825
428,2,0.8,0.0,-1.0,-1,1.0,4.733100999999351
429,2,0.8,6.25,-1.0,-1,1.0,0.4600999999997839
430,2,0.8,6.25,-1.0,-1,1.0,0.23330100000021048
431,2,0.8,100.0,-1.0,-1,1.0,0.1535009999997783
432,2,0.8,100.0,-1.0,-1,1.0,0.2801009999998314
433,2,0.8,6.25,-1.0,-1,1.0,0.27700099999992744
434,2,0.8,12.5,-1.0,-1,1.0,0.30690099999992526
435,2,0.8,25.0,-1.0,-1,1.0,0.23710099999971135
436,2,0.8,12.5,-1.0,-1,1.0,0.2571009999992384
437,2,0.8,100.0,-1.0,-1,1.0,0.0972009999995862
438,2,0.8,6.25,-1.0,-1,1.0,0.25390099999958693
439,2,0.8,25.0,-1.0,-1,1.0,0.14410099999986414
440,2,0.8,6.25,-1.0,-1,1.0,0.2808010000003378
441,2,0.8,12.5,-1.0,-1,1.0,0.3109009999998307
442,2,0.8,0.0,-1.0,-1,1.0,0.30430100000012317
443,2,0.8,12.5,-1.0,-1,1.0,0.2911999999996624
444,2,0.8,25.0,-1.0,-1,1.0,0.2510000000002037
445,2,0.8,12.5,1.0,1,1.0,0.30790099999967424
446,2,0.8,12.5,-1.0,-1,1.0,0.41800000000012005
447,2,0.8,25.0,1.0,1,1.0,0.2681009999996604
448,2,0.8,0.0,-1.0,1,0.0,0.23820100000011735
449,2,0.8,12.5,-1.0,-1,1.0,0.2851009999994858
450,2,0.8,100.0,-1.0,-1,1.0,1.0750010000001566
451,2,0.8,12.5,1.0,1,1.0,0.9384009999998852
452,2,0.8,6.25,-1.0,1,0.0,2.691900999999689
453,2,0.8,100.0,-1.0,-1,1.0,0.21230100000002494
454,2,0.8,0.0,-1.0,-1,1.0,0.6020009999997455
455,2,0.8,0.0,-1.0,-1,1.0,0.22230099999978847
456,2,0.8,0.0,-1.0,1,0.0,1.4254009999999653
457,2,0.8,0.0,1.0,-1,0.0,0.45260099999995873
458,2,0.8,6.25,-1.0,1,0.0,0.552400999999918
459,2,0.8,0.0,-1.0,-1,1.0,0.2659009999997579
460,2,0.8,100.0,-1.0,-1,1.0,0.21600100000023303
461,2,0.8,12.5,-1.0,-1,1.0,0.2527999999997519
462,2,0.8,100.0,-1.0,-1,1.0,0.1993000000002212
463,2,0.8,0.0,-1.0,1,0.0,0.3696009999994203
464,2,0.8,0.0,1.0,1,1.0,0.34640100000024177
465,2,0.8,100.0,-1.0,-1,1.0,0.24660099999982776
466,2,0.8,12.5,-1.0,-1,1.0,0.3131009999997332
467,2,0.8,25.0,-1.0,-1,1.0,0.20650099999966187
468,2,0.8,12.5,-1.0,-1,1.0,0.28320099999973536
469,2,0.8,100.0,-1.0,-1,1.0,0.19670100000030288
470,2,0.8,0.0,-1.0,-1,1.0,0.35340099999984886
471,2,0.8,25.0,-1.0,-1,1.0,0.1968010000000504
472,2,0.8,12.5,-1.0,-1,1.0,0.3035009999994145
473,2,0.2,12.5,1.0,1,1.0,0.7639009999993505
474,2,0.2,12.5,1.0,1,1.0,0.15370099999972808
475,2,0.2,100.0,1.0,1,1.0,0.21720099999947706
476,2,0.2,100.0,-1.0,-1,1.0,0.25399999999945067
477,2,0.2,6.25,1.0,1,1.0,0.2973010000000613
478,2,0.2,6.25,-1.0,-1,1.0,0.30080099999986487
479,2,0.2,0.0,1.0,-1,0.0,0.500800999999683
480,2,0.2,6.25,1.0,1,1.0,0.32770099999970626
481,2,0.2,12.5,-1.0,-1,1.0,0.27770099999952436
482,2,0.2,12.5,-1.0,-1,1.0,0.2846999999997024
483,2,0.2,12.5,1.0,-1,0.0,0.6911999999997533
484,2,0.2,12.5,1.0,1,1.0,0.4316009999997732
485,2,0.2,25.0,1.0,1,1.0,0.32810099999960585
486,2,0.2,0.0,1.0,1,1.0,0.3849009999998998
487,2,0.2,100.0,1.0,1,1.0,0.2483009999996284
488,2,0.2,0.0,1.0,1,1.0,0.2953010000001086
489,2,0.2,12.5,1.0,1,1.0,0.2585009999997965
490,2,0.2,6.25,1.0,1,1.0,0.5088009999994938
491,2,0.2,100.0,1.0,1,1.0,0.23890099999971426
492,2,0.2,0.0,1.0,1,1.0,0.5258009999997739
493,2,0.2,25.0,1.0,1,1.0,0.2457009999998263
494,2,0.2,25.0,1.0,1,1.0,0.22910099999990052
495,2,0.2,25.0,-1.0,-1,1.0,0.25250099999993836
496,2,0.2,100.0,1.0,1,1.0,0.22620099999949161
497,2,0.2,25.0,1.0,-1,0.0,0.12259999999969295
498,2,0.2,25.0,-1.0,-1,1.0,0.2862009999998918
499,2,0.2,0.0,1.0,-1,0.0,0.282799999999952
500,2,0.2,0.0,1.0,-1,0.0,0.26650100000006205
501,2,0.2,6.25,-1.0,-1,1.0,0.3830009999996946
502,2,0.2,100.0,1.0,1,1.0,0.3131010000001879
503,2,0.2,12.5,1.0,1,1.0,0.263101000000006
504,2,0.2,6.25,1.0,1,1.0,0.27660100000002785
505,2,0.2,6.25,1.0,1,1.0,0.33990099999982704
506,2,0.2,0.0,1.0,1,1.0,0.45360100000016246
507,2,0.2,100.0,1.0,1,1.0,0.25000100000033854
508,2,0.2,12.5,1.0,1,1.0,0.3070009999996728
509,2,0.2,100.0,1.0,1,1.0,0.25690099999974336
510,2,0.2,6.25,1.0,1,1.0,0.2603999999996631
511,2,0.2,12.5,1.0,1,1.0,0.22720099999969534
512,2,0.2,25.0,1.0,1,1.0,0.3041009999997186
513,2,0.2,0.0,1.0,1,1.0,0.23400099999935264
514,2,0.2,25.0,1.0,1,1.0,0.25750099999959275
515,2,0.2,6.25,1.0,1,1.0,0.36080100000026505
516,2,0.2,100.0,1.0,1,1.0,0.26110099999959857
517,2,0.2,12.5,1.0,1,1.0,0.25110099999983504
518,2,0.2,0.0,1.0,1,1.0,0.23130099999980303
519,2,0.2,12.5,1.0,1,1.0,0.22470100000009552
520,2,0.2,6.25,-1.0,-1,1.0,1.3448009999992792
521,2,0.2,100.0,-1.0,-1,1.0,0.23480100000006132
522,2,0.2,0.0,1.0,1,1.0,5.238400999999612
523,2,0.2,25.0,1.0,1,1.0,0.35180099999979575
524,2,0.2,25.0,1.0,1,1.0,0.2486999999996442
525,2,0.2,0.0,1.0,-1,0.0,0.32530099999985396
526,2,0.2,6.25,1.0,1,1.0,0.2888009999996939
527,2,0.2,0.0,-1.0,1,0.0,0.24220100000002276
528,2,0.2,12.5,1.0,1,1.0,0.2457009999998263
529,2,0.2,100.0,1.0,1,1.0,0.2556009999998423
530,2,0.2,25.0,1.0,1,1.0,0.6025009999993927
531,2,0.2,12.5,1.0,1,1.0,0.4924009999995178
532,2,0.2,0.0,1.0,1,1.0,0.23940099999981612
533,2,0.2,25.0,1.0,1,1.0,0.3160010000001421
534,2,0.2,6.25,1.0,1,1.0,6.886100999999599
535,2,0.2,0.0,-1.0,1,0.0,1.1062010000000555
536,2,0.2,100.0,1.0,1,1.0,2.2932009999999536
537,2,0.2,6.25,-1.0,-1,1.0,0.4632010000000264
538,2,0.2,100.0,-1.0,-1,1.0,0.21670099999982995
539,2,0.2,0.0,1.0,1,1.0,0.30330099999991944
540,2,0.2,25.0,1.0,1,1.0,0.3769000000002052
541,2,0.2,100.0,1.0,1,1.0,0.2803009999997812
542,2,0.2,6.25,1.0,1,1.0,0.26730099999986123
543,2,0.2,25.0,1.0,1,1.0,0.26380099999960294
544,2,0.2,0.0,1.0,-1,0.0,0.16730099999949744
545,2,0.2,25.0,1.0,1,1.0,0.3173009999995884
546,2,0.2,25.0,1.0,1,1.0,0.3340010000001712
547,2,0.2,25.0,1.0,1,1.0,0.30080099999986487
548,2,0.2,100.0,1.0,1,1.0,0.17440099999976155
549,2,0.2,25.0,-1.0,1,0.0,0.20100099999990562
550,2,0.2,25.0,1.0,1,1.0,0.22780099999999948
551,2,0.2,12.5,1.0,1,1.0,0.18770099999983358
552,2,0.2,100.0,-1.0,-1,1.0,0.24140100000022358
553,2,0.2,100.0,-1.0,-1,1.0,0.26450100000010934
554,2,0.2,100.0,1.0,1,1.0,0.29170099999964805
555,2,0.2,25.0,1.0,1,1.0,0.3713009999996757
556,2,0.2,6.25,1.0,1,1.0,0.7017009999999573
557,2,0.2,25.0,-1.0,-1,1.0,0.19160099999953673
558,2,0.2,12.5,1.0,1,1.0,0.23180099999945014
559,2,0.2,25.0,1.0,1,1.0,0.27520099999992453
560,2,0.2,100.0,1.0,1,1.0,0.21220099999982267
561,2,0.2,25.0,1.0,1,1.0,0.1987010000002556
562,2,0.2,25.0,1.0,1,1.0,0.28930099999979575
563,2,0.2,6.25,1.0,1,1.0,0.2055009999999129
564,2,0.2,100.0,-1.0,-1,1.0,0.2623009999997521
565,2,0.2,25.0,1.0,1,1.0,0.22910099999990052
566,2,0.2,12.5,-1.0,1,0.0,0.2928009999995993
567,2,0.2,100.0,-1.0,-1,1.0,0.5727009999995971
568,2,0.2,12.5,1.0,1,1.0,0.2530009999995855
569,2,0.8,12.5,-1.0,1,0.0,0.2796010000001843
570,2,0.8,100.0,1.0,1,1.0,0.2130010000000766
571,2,0.8,25.0,-1.0,-1,1.0,0.12300099999947633
572,2,0.8,12.5,-1.0,-1,1.0,0.3966009999999187
573,2,0.8,6.25,-1.0,-1,1.0,0.3198009999991882
574,2,0.8,6.25,-1.0,-1,1.0,0.33360099999981685
575,2,0.8,6.25,-1.0,-1,1.0,0.34339999999929205
576,2,0.8,25.0,-1.0,1,0.0,5.270200999999361
577,2,0.8,12.5,-1.0,-1,1.0,0.27700099999992744
578,2,0.8,12.5,-1.0,1,0.0,7.267100999999911
579,2,0.8,0.0,1.0,-1,0.0,0.29720099999985905
580,2,0.8,100.0,1.0,1,1.0,0.25430099999994127
581,2,0.8,25.0,-1.0,-1,1.0,0.3240009999999529
582,2,0.8,12.5,-1.0,1,0.0,1.1577999999994972
583,2,0.8,100.0,-1.0,-1,1.0,0.250999999999749
584,2,0.8,100.0,1.0,1,1.0,0.28790099999969243
585,2,0.8,100.0,-1.0,-1,1.0,0.3345009999998183
586,2,0.8,100.0,-1.0,-1,1.0,0.3347009999997681
587,2,0.8,0.0,-1.0,-1,1.0,0.3349009999997179
588,2,0.8,100.0,-1.0,-1,1.0,0.5783010000000104
589,2,0.8,6.25,-1.0,-1,1.0,2.248099999999795
590,2,0.8,25.0,-1.0,-1,1.0,24.67160100000001
591,2,0.8,100.0,-1.0,-1,1.0,0.25209999999970023
592,2,0.8,0.0,-1.0,-1,1.0,0.379200999999739
593,2,0.8,6.25,-1.0,-1,1.0,0.5091009999996459
594,2,0.8,6.25,-1.0,-1,1.0,0.21930099999963204
595,2,0.8,25.0,-1.0,-1,1.0,0.28589999999985594
596,2,0.8,12.5,-1.0,-1,1.0,0.2360009999997601
597,2,0.8,6.25,-1.0,-1,1.0,0.2627009999996517
598,2,0.8,25.0,1.0,1,1.0,0.28970099999969534
599,2,0.8,12.5,1.0,1,1.0,0.4196009999996022
600,2,0.8,0.0,-1.0,1,0.0,0.23990099999991799
601,2,0.8,25.0,-1.0,-1,1.0,0.17970100000002276
602,2,0.8,0.0,-1.0,-1,1.0,0.20700099999976374
603,2,0.8,25.0,1.0,1,1.0,0.2601009999998496
604,2,0.8,0.0,1.0,-1,0.0,0.3370009999998729
605,2,0.8,0.0,1.0,1,1.0,0.29680099999995946
606,2,0.8,25.0,-1.0,-1,1.0,0.2340009999998074
607,2,0.8,6.25,-1.0,-1,1.0,0.27720099999987724
608,2,0.8,0.0,1.0,-1,0.0,0.32740100000000893
609,2,0.8,0.0,-1.0,-1,1.0,0.27740099999982704
610,2,0.8,6.25,-1.0,-1,1.0,0.2778009999997266
611,2,0.8,100.0,1.0,1,1.0,13.054300999999668
612,2,0.8,6.25,1.0,1,1.0,0.43780100000003586
613,2,0.8,6.25,-1.0,-1,1.0,0.25140099999953236
614,2,0.8,25.0,-1.0,-1,1.0,0.2547999999997046
615,2,0.8,100.0,1.0,1,1.0,1.034599999999955
616,2,0.8,25.0,-1.0,-1,1.0,0.1882009999994807
617,2,0.8,25.0,-1.0,-1,1.0,0.28150099999948
618,2,0.8,6.25,1.0,1,1.0,0.40830099999993763
619,2,0.8,12.5,-1.0,-1,1.0,0.41500100000030216
620,2,0.8,25.0,-1.0,-1,1.0,0.1954009999999471
621,2,0.8,6.25,-1.0,-1,1.0,0.598500999999942
622,2,0.8,0.0,-1.0,-1,1.0,0.2421009999998205
623,2,0.8,0.0,-1.0,-1,1.0,0.3086009999997259
624,2,0.8,6.25,-1.0,-1,1.0,0.35200099999974555
625,2,0.8,0.0,-1.0,-1,1.0,0.29580099999975573
626,2,0.8,6.25,1.0,1,1.0,0.3756010000001879
627,2,0.8,100.0,-1.0,-1,1.0,0.2595010000000002
628,2,0.8,0.0,-1.0,1,0.0,0.26559999999972206
629,2,0.8,0.0,1.0,1,1.0,0.7259009999997943
630,2,0.8,25.0,-1.0,-1,1.0,0.2659009999997579
631,2,0.8,6.25,1.0,1,1.0,0.41969999999946594
632,2,0.8,6.25,1.0,1,1.0,0.27609999999958745
633,2,0.8,100.0,1.0,1,1.0,0.21980100000018865
634,2,0.8,0.0,-1.0,1,0.0,0.22289999999975407
635,2,0.8,12.5,1.0,1,1.0,0.29000100000030216
636,2,0.8,12.5,-1.0,1,0.0,0.3263999999999214
637,2,0.8,12.5,-1.0,1,0.0,0.3202009999999973
638,2,0.8,6.25,-1.0,-1,1.0,0.33000099999981103
639,2,0.8,12.5,1.0,1,1.0,0.2435009999999238
640,2,0.8,6.25,-1.0,1,0.0,0.3568009999999049
641,2,0.8,6.25,-1.0,-1,1.0,0.32050100000014936
642,2,0.8,12.5,-1.0,-1,1.0,0.2703009999995629
643,2,0.8,100.0,-1.0,-1,1.0,0.203899999999976
644,2,0.8,25.0,-1.0,-1,1.0,0.2704009999997652
645,2,0.8,0.0,1.0,-1,0.0,0.32730099999980666
646,2,0.8,12.5,-1.0,-1,1.0,0.2239009999998416
647,2,0.8,6.25,-1.0,-1,1.0,0.37430099999983213
648,2,0.8,25.0,-1.0,-1,1.0,0.30080099999986487
649,2,0.8,100.0,-1.0,-1,1.0,0.28120099999978265
650,2,0.8,100.0,-1.0,-1,1.0,0.254200999999739
651,2,0.8,25.0,1.0,1,1.0,0.3278009999994538
652,2,0.8,6.25,1.0,1,1.0,0.2911009999993439
653,2,0.8,0.0,-1.0,1,0.0,0.34470099999953163
654,2,0.2,6.25,1.0,-1,0.0,0.2914009999999507
655,2,0.2,100.0,1.0,1,1.0,0.26160099999970043
656,2,0.2,100.0,1.0,1,1.0,0.29500099999995655
657,2,0.2,25.0,1.0,1,1.0,0.26170099999944796
658,2,0.2,100.0,1.0,1,1.0,0.28159999999979846
659,2,0.2,0.0,-1.0,1,0.0,0.3187009999996917
660,2,0.2,25.0,-1.0,-1,1.0,0.26510099999995873
661,2,0.2,6.25,1.0,1,1.0,0.9289010000002236
662,2,0.2,100.0,1.0,-1,0.0,0.10850100000016027
663,2,0.2,6.25,-1.0,-1,1.0,0.24220100000002276
664,2,0.2,12.5,-1.0,-1,1.0,0.2987009999997099
665,2,0.2,100.0,1.0,1,1.0,0.23920099999986633
666,2,0.2,6.25,1.0,1,1.0,0.48559999999952197
667,2,0.2,25.0,-1.0,-1,1.0,0.20580100000006496
668,2,0.2,25.0,-1.0,-1,1.0,0.2889999999997599
669,2,0.2,100.0,-1.0,-1,1.0,0.2559009999999944
670,2,0.2,6.25,-1.0,-1,1.0,0.3257999999996173
671,2,0.2,6.25,1.0,-1,0.0,0.15280100000018138
672,2,0.2,12.5,1.0,1,1.0,0.3493010000001959
673,2,0.2,25.0,1.0,1,1.0,0.336500999999771
674,2,0.2,6.25,1.0,1,1.0,0.3629009999999653
675,2,0.2,6.25,1.0,1,1.0,0.3297010000001137
676,2,0.2,100.0,1.0,1,1.0,0.24310100000002421
677,2,0.2,0.0,1.0,1,1.0,0.2699009999996633
678,2,0.2,25.0,1.0,1,1.0,0.3199009999998452
679,2,0.2,12.5,1.0,1,1.0,0.1802999999995336
680,2,0.2,0.0,1.0,1,1.0,0.310200999999779
681,2,0.2,25.0,1.0,1,1.0,0.2704009999997652
682,2,0.2,6.25,1.0,-1,0.0,0.10360099999979866
683,2,0.2,100.0,1.0,1,1.0,0.29050099999994927
684,2,0.2,25.0,-1.0,1,0.0,0.2638010000000577
685,2,0.2,25.0,-1.0,-1,1.0,0.09750100000019302
686,2,0.2,25.0,1.0,1,1.0,0.22060099999998783
687,2,0.2,100.0,1.0,1,1.0,0.22090099999968515
688,2,0.2,6.25,-1.0,1,0.0,0.19080099999973754
689,2,0.2,6.25,1.0,1,1.0,0.21110099999987142
690,2,0.2,6.25,1.0,1,1.0,0.24090099999966696
691,2,0.2,100.0,1.0,1,1.0,0.15780099999983577
692,2,0.2,25.0,-1.0,1,0.0,1.0444010000001072
693,2,0.2,100.0,1.0,1,1.0,0.36129999999957363
694,2,0.2,0.0,1.0,1,1.0,0.49779999999964275
695,2,0.2,6.25,1.0,1,1.0,0.2848999999996522
696,2,0.2,0.0,1.0,1,1.0,0.3248009999997521
697,2,0.2,6.25,-1.0,-1,1.0,0.46170099999926606
698,2,0.2,0.0,1.0,1,1.0,0.30849999999963984
699,2,0.2,25.0,1.0,1,1.0,0.2285009999995964
700,2,0.2,0.0,-1.0,1,0.0,0.2684009999998125
701,2,0.2,0.0,1.0,1,1.0,0.24530099999992672
702,2,0.2,0.0,-1.0,1,0.0,4.5986009999996895
703,2,0.2,6.25,1.0,1,1.0,0.6724009999998088
704,2,0.2,100.0,1.0,1,1.0,0.20559999999977663
705,2,0.2,6.25,1.0,1,1.0,0.34920099999999366
706,2,0.2,100.0,1.0,1,1.0,0.2257009999998445
707,2,0.2,12.5,1.0,1,1.0,0.25250099999993836
708,2,0.2,6.25,1.0,1,1.0,0.3258009999999558
709,2,0.2,0.0,1.0,1,1.0,0.30610099999967133
710,2,0.2,25.0,1.0,1,1.0,0.2426009999994676
711,2,0.8,12.5,1.0,1,1.0,0.2130010000000766
712,2,0.8,6.25,-1.0,1,0.0,0.286000999999942
713,2,0.8,100.0,-1.0,-1,1.0,0.2961009999999078
714,2,0.8,100.0,-1.0,-1,1.0,0.28280099999983577
715,2,0.8,12.5,-1.0,-1,1.0,0.28290000000015425
716,2,0.8,12.5,1.0,1,1.0,0.3131009999997332
717,2,0.8,0.0,1.0,1,1.0,0.31330099999968297
718,2,0.8,100.0,1.0,1,1.0,0.29310099999975137
719,2,0.8,6.25,-1.0,1,0.0,0.32350099999985105
720,2,0.8,12.5,-1.0,-1,1.0,0.3234009999996488
721,2,0.8,0.0,1.0,1,1.0,0.24350000000004002
722,2,0.8,6.25,-1.0,1,0.0,0.2101009999996677
723,2,0.8,100.0,-1.0,-1,1.0,0.23050100000000384
724,2,0.8,100.0,-1.0,-1,1.0,0.2636010000001079
725,2,0.8,6.25,1.0,1,1.0,0.2872010000000955
726,2,0.8,100.0,-1.0,-1,1.0,0.26040100000000166
727,2,0.8,0.0,-1.0,-1,1.0,0.3074009999995724
728,2,0.8,100.0,-1.0,-1,1.0,0.25080099999968297
729,2,0.8,0.0,-1.0,-1,1.0,0.2707009999994625
730,2,0.8,12.5,-1.0,-1,1.0,0.25400100000024395
731,2,0.8,12.5,-1.0,-1,1.0,0.24770099999977901
732,2,0.8,25.0,-1.0,-1,1.0,0.2776010000002316
733,2,0.8,6.25,-1.0,1,0.0,16.194400999999743
734,2,0.8,100.0,1.0,1,1.0,0.3780009999995855
735,2,0.8,25.0,-1.0,-1,1.0,0.2417009999999209
736,2,0.8,25.0,1.0,1,1.0,0.291501000000153
737,2,0.8,25.0,-1.0,-1,1.0,0.2583009999998467
738,2,0.8,100.0,-1.0,-1,1.0,0.2250010000002476
739,2,0.8,0.0,-1.0,-1,1.0,0.2653009999999085
740,2,0.8,100.0,-1.0,-1,1.0,0.288300999999592
741,2,0.8,6.25,-1.0,-1,1.0,0.2819009999998343
742,2,0.8,0.0,1.0,1,1.0,0.4052010000000337
743,2,0.8,0.0,-1.0,1,0.0,0.40210099999967497
744,2,0.8,6.25,-1.0,1,0.0,0.2987009999997099
745,2,0.8,0.0,-1.0,1,0.0,0.29900099999986196
746,2,0.8,6.25,-1.0,-1,1.0,0.3388009999998758
747,2,0.8,12.5,-1.0,-1,1.0,0.3158010000001923
748,2,0.8,6.25,1.0,-1,0.0,5.965600999999879
749,2,0.8,12.5,-1.0,-1,1.0,0.4860009999997601
750,2,0.8,6.25,-1.0,-1,1.0,0.31940099999974336
751,2,0.8,6.25,-1.0,-1,1.0,0.2764009999996233
752,2,0.8,100.0,-1.0,-1,1.0,0.23280099999965387
753,2,0.8,12.5,-1.0,-1,1.0,0.22630099999969389
754,2,0.8,12.5,-1.0,-1,1.0,0.42620099999976446
755,2,0.8,25.0,-1.0,-1,1.0,0.2834010000001399
756,2,0.8,25.0,-1.0,-1,1.0,0.29320099999995364
757,2,0.8,12.5,-1.0,-1,1.0,0.2933010000001559
758,2,0.8,0.0,-1.0,-1,1.0,0.3132009999994807
759,2,0.8,6.25,1.0,1,1.0,4.033400999999685
760,2,0.8,0.0,-1.0,1,0.0,0.5234009999994669
761,2,0.8,100.0,-1.0,1,0.0,2.67370099999971
762,2,0.8,12.5,-1.0,1,0.0,2.7635999999997694
763,2,0.8,0.0,-1.0,1,0.0,13.110501000000113
764,2,0.8,100.0,1.0,1,1.0,0.3675009999997201
765,2,0.8,100.0,-1.0,-1,1.0,0.5710999999996602
766,2,0.8,25.0,1.0,1,1.0,0.32770099999970626
767,2,0.8,25.0,-1.0,-1,1.0,0.3379009999994196
768,2,0.8,0.0,-1.0,-1,1.0,0.5777009999997063
769,2,0.8,0.0,-1.0,-1,1.0,0.3482009999993352
770,2,0.8,6.25,1.0,1,1.0,0.627900999999838
771,2,0.8,100.0,-1.0,-1,1.0,0.23510099999975864
772,2,0.8,0.0,-1.0,-1,1.0,0.4514009999998052
773,2,0.8,25.0,-1.0,-1,1.0,0.4682009999996808
774,2,0.8,25.0,-1.0,-1,1.0,0.2881009999996422
775,2,0.8,0.0,-1.0,-1,1.0,0.47830100000010134
776,2,0.8,100.0,1.0,1,1.0,0.3916009999998096
777,2,0.8,100.0,1.0,1,1.0,0.29870100000016464
778,2,0.8,6.25,-1.0,1,0.0,0.4018009999995229
779,2,0.8,100.0,1.0,1,1.0,0.2886009999997441
780,2,0.8,6.25,-1.0,1,0.0,0.35860100000036255
781,2,0.8,12.5,1.0,1,1.0,0.3889009999998052
782,2,0.8,100.0,-1.0,-1,1.0,0.2354009999999107
783,2,0.8,12.5,-1.0,-1,1.0,22.308900999999878
784,2,0.8,0.0,-1.0,-1,1.0,20.342701000000034
785,2,0.8,25.0,-1.0,-1,1.0,0.34010099999977683
786,2,0.8,0.0,-1.0,-1,1.0,0.7731009999993148
787,2,0.8,100.0,-1.0,-1,1.0,0.3067010000004302
788,2,0.8,0.0,-1.0,-1,1.0,0.30350099999986924
789,2,0.8,0.0,-1.0,-1,1.0,0.40040099999987433
790,2,0.8,0.0,-1.0,-1,1.0,0.34350099999983286
791,2,0.8,12.5,-1.0,-1,1.0,0.4138009999996939
792,2,0.8,0.0,-1.0,-1,1.0,0.43380100000013044
793,2,0.8,25.0,-1.0,-1,1.0,0.3240009999999529
794,2,0.8,25.0,-1.0,-1,1.0,0.2606009999994967
795,2,0.8,12.5,-1.0,-1,1.0,4.69760099999985
796,2,0.8,25.0,-1.0,-1,1.0,0.32410099999970043
797,2,0.8,100.0,-1.0,-1,1.0,0.3010010000002694
798,2,0.8,6.25,-1.0,-1,1.0,0.5609009999998307
799,2,0.8,12.5,-1.0,-1,1.0,0.29120100000000093
800,2,0.8,100.0,1.0,1,1.0,0.3209009999995942
801,2,0.8,25.0,-1.0,-1,1.0,0.40800099999978556
802,2,0.8,100.0,-1.0,-1,1.0,0.24800099999947633
803,2,0.8,0.0,-1.0,-1,1.0,0.47480099999984304
804,2,0.2,0.0,1.0,-1,0.0,13.408000999999786
805,2,0.2,6.25,1.0,-1,0.0,15.565300999999636
806,2,0.2,6.25,1.0,-1,0.0,7.932099999999991
807,2,0.2,25.0,1.0,-1,0.0,4.9327009999997244
808,2,0.2,100.0,1.0,1,1.0,1.9492999999997664
809,2,0.2,6.25,1.0,-1,0.0,10.626201000000037
810,2,0.2,6.25,1.0,1,1.0,6.129700999999841
811,2,0.2,12.5,-1.0,-1,1.0,0.9334009999997761
812,2,0.2,6.25,-1.0,-1,1.0,9.106600000000071
813,2,0.2,6.25,1.0,-1,0.0,11.857100999999602
814,2,0.2,0.0,1.0,-1,0.0,0.5170010000001639
815,2,0.2,100.0,1.0,1,1.0,0.510700999999699
816,2,0.2,12.5,1.0,-1,0.0,5.040600999999697
817,2,0.2,100.0,1.0,1,1.0,0.5177009999993061
818,2,0.2,12.5,-1.0,-1,1.0,1.5474010000002636
819,2,0.2,0.0,1.0,-1,0.0,8.907601000000795
820,2,0.2,0.0,1.0,-1,0.0,1.3712009999990187
821,2,0.2,100.0,-1.0,-1,1.0,0.3914009999998598
822,2,0.2,100.0,1.0,1,1.0,0.5380009999998947
823,2,0.2,12.5,1.0,-1,0.0,8.61160000000018
824,2,0.2,6.25,1.0,-1,0.0,1.041600999998991
825,2,0.2,6.25,-1.0,-1,1.0,18.54530100000011
826,2,0.2,100.0,1.0,1,1.0,0.38209999999980937
827,2,0.2,12.5,1.0,-1,0.0,11.559101000000737
828,2,0.2,6.25,1.0,1,1.0,3.0626009999996313
1,3,0.5,0.0,-1.0,1,0.0,0.4113
2,3,0.5,12.5,-1.0,-1,1.0,0.581099
3,3,0.5,12.5,-1.0,-1,1.0,0.24179999999999957
4,3,0.5,100.0,1.0,1,1.0,0.31299999999999883
5,3,0.5,6.25,1.0,1,1.0,3.7563999999999993
6,3,0.5,100.0,-1.0,-1,1.0,0.18629999999999924
7,3,0.5,100.0,-1.0,-1,1.0,0.24469999999999814
8,3,0.5,6.25,1.0,1,1.0,0.9198999999999984
9,3,0.5,0.0,-1.0,1,0.0,0.30169999999999675
10,3,0.5,12.5,-1.0,-1,1.0,0.2347999999999928
11,3,0.5,0.0,1.0,-1,0.0,0.3136999999999972
12,3,0.5,25.0,1.0,1,1.0,0.3260000000000005
13,3,0.5,12.5,-1.0,-1,1.0,0.22579999999999956
14,3,0.5,0.0,-1.0,1,0.0,0.28290000000001214
15,3,0.5,12.5,1.0,1,1.0,0.35250000000000625
16,3,0.5,100.0,-1.0,-1,1.0,0.20900000000000318
17,3,0.5,12.5,-1.0,-1,1.0,0.29570000000001073
18,3,0.5,12.5,1.0,1,1.0,0.2779000000000025
19,3,0.5,12.5,-1.0,-1,1.0,0.3482999999999947
20,3,0.5,12.5,-1.0,-1,1.0,0.3135999999999939
21,3,0.5,6.25,1.0,1,1.0,0.29749999999999943
22,3,0.5,100.0,1.0,1,1.0,0.4142000000000081
23,3,0.5,100.0,-1.0,-1,1.0,0.25
24,3,0.5,25.0,-1.0,-1,1.0,0.29760000000000275
25,3,0.5,100.0,-1.0,-1,1.0,0.2553999999999945
26,3,0.5,25.0,1.0,1,1.0,0.2775000000000176
27,3,0.5,12.5,-1.0,-1,1.0,0.25609999999998934
28,3,0.5,6.25,-1.0,1,0.0,0.2004000000000019
29,3,0.5,25.0,-1.0,-1,1.0,0.4335000000000093
30,3,0.5,0.0,1.0,-1,0.0,0.22539999999997917
31,3,0.5,25.0,1.0,1,1.0,0.2710999999999899
32,3,0.5,0.0,-1.0,1,0.0,0.33320000000003347
33,3,0.5,100.0,1.0,1,1.0,0.18609999999998195
34,3,0.5,0.0,1.0,1,1.0,0.26940000000001874
35,3,0.5,6.25,1.0,1,1.0,0.3288000000000295
36,3,0.5,12.5,1.0,1,1.0,0.26660000000001105
37,3,0.5,25.0,1.0,1,1.0,0.19860000000002742
38,3,0.5,25.0,1.0,1,1.0,0.20340000000001623
39,3,0.5,100.0,-1.0,-1,1.0,0.3283000000000129
40,3,0.5,25.0,1.0,1,1.0,0.21940000000000737
41,3,0.5,100.0,-1.0,1,0.0,0.2879000000000076
42,3,0.5,25.0,1.0,1,1.0,0.25469900000001644
43,3,0.5,25.0,1.0,1,1.0,0.22440000000000282
44,3,0.5,12.5,-1.0,-1,1.0,0.4510999999999967
45,3,0.5,0.0,-1.0,1,0.0,0.3452000000000055
46,3,0.5,100.0,1.0,1,1.0,0.2265000000000157
47,3,0.5,6.25,1.0,1,1.0,0.24960000000001514
48,3,0.5,6.25,-1.0,1,0.0,0.17730000000003088
49,3,0.5,100.0,1.0,1,1.0,0.21609900000001403
50,3,0.5,100.0,1.0,1,1.0,0.20589999999998554
51,3,0.5,6.25,-1.0,1,0.0,0.21810000000002105
52,3,0.5,25.0,1.0,1,1.0,0.28950000000000387
53,3,0.5,0.0,-1.0,1,0.0,0.2284999999999684
54,3,0.5,6.25,1.0,1,1.0,0.33850000000001046
55,3,0.5,6.25,1.0,1,1.0,0.1980999999999824
56,3,0.5,100.0,1.0,-1,0.0,0.39800000000002456
57,3,0.5,6.25,1.0,-1,0.0,0.3141000000000531
58,3,0.5,6.25,-1.0,-1,1.0,0.24760000000003402
59,3,0.5,0.0,-1.0,1,0.0,0.2074999999999818
60,3,0.5,25.0,1.0,1,1.0,0.24919999999997344
61,3,0.5,100.0,1.0,1,1.0,0.24039999999996553
62,3,0.5,12.5,-1.0,-1,1.0,0.24230000000000018
63,3,0.5,6.25,1.0,1,1.0,0.24739999999997053
64,3,0.5,100.0,-1.0,-1,1.0,0.2067000000000121
65,3,0.5,100.0,1.0,1,1.0,0.24209999999999354
66,3,0.5,25.0,1.0,1,1.0,0.26429999999999154
67,3,0.5,25.0,1.0,1,1.0,0.24150000000003047
68,3,0.5,25.0,1.0,1,1.0,0.3353000000000179
69,3,0.5,25.0,-1.0,1,0.0,0.3079999999999927
70,3,0.5,0.0,-1.0,1,0.0,0.33279999999996335
71,3,0.5,100.0,1.0,1,1.0,0.24639999999999418
72,3,0.5,12.5,-1.0,-1,1.0,0.237199999999973
73,3,0.5,0.0,1.0,1,1.0,0.38980000000003656
74,3,0.5,100.0,1.0,1,1.0,0.2220999999999549
75,3,0.5,25.0,1.0,1,1.0,0.23469999999997526
76,3,0.5,100.0,-1.0,-1,1.0,0.27689999999995507
77,3,0.5,100.0,1.0,1,1.0,0.3438009999999849
78,3,0.5,12.5,1.0,1,1.0,0.22420099999999366
79,3,0.5,25.0,-1.0,-1,1.0,0.25820099999998547
80,3,0.5,6.25,-1.0,-1,1.0,0.28790099999997665
81,3,0.5,0.0,-1.0,1,0.0,0.9981010000000197
82,3,0.5,25.0,1.0,1,1.0,0.23990099999997483
83,3,0.5,6.25,-1.0,-1,1.0,0.4208009999999831
84,3,0.5,0.0,-1.0,1,0.0,2.491600999999946
85,3,0.5,0.0,1.0,1,1.0,0.30320099999994454
86,3,0.5,6.25,1.0,1,1.0,0.2140009999999961
87,3,0.5,12.5,1.0,1,1.0,0.38890099999997574
88,3,0.5,25.0,1.0,1,1.0,0.2584009999999921
89,3,0.5,100.0,-1.0,-1,1.0,0.2554010000000062
90,3,0.5,6.25,1.0,1,1.0,0.8448010000000181
91,3,0.8,6.25,1.0,1,1.0,0.2313010000000304
92,3,0.8,12.5,-1.0,1,0.0,0.18340100000000348
93,3,0.8,100.0,1.0,1,1.0,0.22290100000003576
94,3,0.8,12.5,-1.0,-1,1.0,0.3556010000000356
95,3,0.8,0.0,1.0,1,1.0,0.23210100000005696
96,3,0.8,0.0,-1.0,-1,1.0,0.27050099999996746
97,3,0.8,12.5,-1.0,-1,1.0,0.2775010000000293
98,3,0.8,0.0,-1.0,-1,1.0,0.30680099999995036
99,3,0.8,100.0,-1.0,-1,1.0,0.23770100000001548
100,3,0.8,100.0,1.0,1,1.0,0.3594009999999912
101,3,0.8,12.5,-1.0,-1,1.0,0.2902010000000246
102,3,0.8,25.0,1.0,1,1.0,0.26890100000002803
103,3,0.8,6.25,1.0,1,1.0,0.2724010000000021
104,3,0.8,100.0,-1.0,-1,1.0,0.2533999999999992
105,3,0.8,6.25,-1.0,1,0.0,0.2798010000000204
106,3,0.8,12.5,1.0,1,1.0,0.25510100000002467
107,3,0.8,6.25,1.0,1,1.0,0.2506010000000174
108,3,0.8,6.25,1.0,1,1.0,0.17240099999997938
109,3,0.8,100.0,-1.0,-1,1.0,0.29040100000008806
110,3,0.8,25.0,-1.0,-1,1.0,0.3085009999999784
111,3,0.8,0.0,-1.0,1,0.0,0.7179009999999835
112,3,0.8,100.0,-1.0,-1,1.0,0.368701000000101
113,3,0.8,100.0,1.0,1,1.0,0.25220100000001366
114,3,0.8,0.0,-1.0,1,0.0,0.2575009999999338
115,3,0.8,100.0,-1.0,-1,1.0,0.2316009999998414
116,3,0.8,100.0,-1.0,-1,1.0,0.23690099999998893
117,3,0.8,25.0,-1.0,-1,1.0,0.3465009999999893
118,3,0.8,12.5,1.0,1,1.0,0.6018010000000231
119,3,0.8,100.0,-1.0,-1,1.0,0.30040100000007897
120,3,0.8,100.0,1.0,1,1.0,0.23410100000000966
121,3,0.8,100.0,-1.0,-1,1.0,0.5035010000001421
122,3,0.8,100.0,-1.0,-1,1.0,0.31710099999997965
123,3,0.8,25.0,-1.0,-1,1.0,1.000101000000086
124,3,0.8,25.0,-1.0,-1,1.0,0.6828010000000404
125,3,0.8,6.25,-1.0,1,0.0,0.21300099999996291
126,3,0.8,12.5,-1.0,1,0.0,0.6079010000000835
127,3,0.8,12.5,-1.0,1,0.0,0.16380100000003495
128,3,0.8,12.5,-1.0,-1,1.0,0.3699010000000271
129,3,0.8,6.25,1.0,-1,0.0,0.3140010000000757
130,3,0.8,25.0,-1.0,-1,1.0,0.2711010000000442
131,3,0.8,25.0,1.0,1,1.0,0.23420099999998456
132,3,0.8,25.0,1.0,1,1.0,0.21480099999996582
133,3,0.8,100.0,1.0,1,1.0,0.25200100000006387
134,3,0.8,0.0,-1.0,1,0.0,0.21810000000004948
135,3,0.8,6.25,-1.0,1,0.0,0.1631009999999833
136,3,0.8,100.0,1.0,1,1.0,0.16850099999999202
137,3,0.8,100.0,-1.0,-1,1.0,0.25890099999992344
138,3,0.8,12.5,-1.0,-1,1.0,0.2934010000000171
139,3,0.8,0.0,-1.0,-1,1.0,0.37590099999999893
140,3,0.8,12.5,-1.0,-1,1.0,0.14520100000004277
141,3,0.8,12.5,1.0,-1,0.0,0.39990099999999984
142,3,0.8,25.0,-1.0,-1,1.0,0.24700100000006842
143,3,0.8,12.5,1.0,1,1.0,0.8018009999999549
144,3,0.8,100.0,-1.0,-1,1.0,0.23660099999995055
145,3,0.8,100.0,-1.0,-1,1.0,0.21580099999994218
146,3,0.8,0.0,-1.0,-1,1.0,0.27060099999994236
147,3,0.8,12.5,-1.0,-1,1.0,0.26280099999996764
148,3,0.8,25.0,-1.0,-1,1.0,0.2653010000000222
149,3,0.8,25.0,-1.0,-1,1.0,0.24200100000007296
150,3,0.8,100.0,-1.0,-1,1.0,0.2557009999999309
151,3,0.8,100.0,1.0,1,1.0,0.25490100000001803
152,3,0.8,12.5,-1.0,1,0.0,0.22760100000004968
153,3,0.8,25.0,1.0,1,1.0,0.27430100000015045
154,3,0.8,12.5,-1.0,-1,1.0,0.23990100000003167
155,3,0.8,0.0,-1.0,-1,1.0,0.40150100000005295
156,3,0.8,25.0,-1.0,-1,1.0,0.30500099999994745
157,3,0.8,0.0,-1.0,1,0.0,0.2574009999999589
158,3,0.8,12.5,-1.0,1,0.0,0.14810099999999693
159,3,0.8,100.0,1.0,-1,0.0,0.18140099999993708
160,3,0.8,100.0,-1.0,-1,1.0,0.24070099999994454
161,3,0.8,0.0,1.0,-1,0.0,0.26100099999996473
162,3,0.8,100.0,-1.0,-1,1.0,0.2772010000001046
163,3,0.8,100.0,-1.0,-1,1.0,0.2719999999999345
164,3,0.8,12.5,1.0,1,1.0,0.3077009999999518
165,3,0.8,100.0,-1.0,-1,1.0,0.25490100000001803
166,3,0.8,0.0,1.0,1,1.0,0.23250099999995655
167,3,0.8,100.0,-1.0,-1,1.0,0.3727999999999838
168,3,0.2,6.25,1.0,-1,0.0,0.198900999999978
169,3,0.2,6.25,1.0,-1,0.0,0.2476010000000315
170,3,0.2,12.5,1.0,1,1.0,0.20590100000003986
171,3,0.2,12.5,1.0,1,1.0,0.2837009999999509
172,3,0.2,25.0,1.0,1,1.0,0.249800999999934
173,3,0.2,100.0,1.0,1,1.0,0.30120099999999184
174,3,0.2,0.0,1.0,1,1.0,0.29890100000000075
175,3,0.2,0.0,1.0,1,1.0,0.34170099999994363
176,3,0.2,25.0,1.0,1,1.0,0.24910099999999602
177,3,0.2,0.0,1.0,1,1.0,3.6159000000000106
178,3,0.2,100.0,1.0,1,1.0,0.22040100000003804
179,3,0.2,25.0,-1.0,-1,1.0,0.4030010000000175
180,3,0.2,100.0,1.0,1,1.0,0.2658010000000104
181,3,0.2,100.0,1.0,1,1.0,0.2492010000000846
182,3,0.2,100.0,1.0,1,1.0,0.3528009999999995
183,3,0.2,6.25,1.0,1,1.0,0.2656009999999469
184,3,0.2,25.0,1.0,1,1.0,0.2269010000001117
185,3,0.2,100.0,1.0,1,1.0,0.22090100000002622
186,3,0.2,12.5,1.0,1,1.0,0.3042009999999209
187,3,0.2,0.0,1.0,1,1.0,0.3456010000001015
188,3,0.2,0.0,1.0,1,1.0,0.16500100000007478
189,3,0.2,6.25,1.0,1,1.0,0.22250099999996564
190,3,0.8,6.25,-1.0,1,0.0,0.23120099999994181
191,3,0.8,12.5,-1.0,1,0.0,0.2673009999999749
192,3,0.8,6.25,-1.0,1,0.0,0.22570100000007187
193,3,0.8,12.5,-1.0,1,0.0,0.25490100000001803
194,3,0.8,0.0,-1.0,1,0.0,0.2536010000000033
195,3,0.8,12.5,-1.0,-1,1.0,0.2596009999999751
196,3,0.8,6.25,-1.0,-1,1.0,0.28700100000003204
197,3,0.8,6.25,-1.0,-1,1.0,0.4471009999999751
198,3,0.8,6.25,-1.0,-1,1.0,0.3399010000000544
199,3,0.8,100.0,-1.0,-1,1.0,0.25130000000001473
200,3,0.8,6.25,-1.0,-1,1.0,0.3249000000000706
201,3,0.8,12.5,-1.0,-1,1.0,0.21490099999994072
202,3,0.8,25.0,-1.0,-1,1.0,0.2535010000000284
203,3,0.8,25.0,1.0,1,1.0,0.35700099999996837
204,3,0.8,0.0,-1.0,1,0.0,0.17340100000001257
205,3,0.8,100.0,1.0,1,1.0,0.1830010000001039
206,3,0.8,12.5,1.0,1,1.0,0.3419010000000071
207,3,0.8,25.0,-1.0,-1,1.0,0.36130100000002585
208,3,0.8,100.0,-1.0,-1,1.0,0.2516009999999369
209,3,0.8,25.0,-1.0,-1,1.0,0.24810100000001967
210,3,0.8,100.0,-1.0,-1,1.0,0.26070099999992635
211,3,0.8,25.0,-1.0,-1,1.0,0.23680099999990034
212,3,0.8,100.0,1.0,1,1.0,0.24800099999993108
213,3,0.8,25.0,1.0,1,1.0,0.294399999999996
214,3,0.8,0.0,-1.0,1,0.0,0.2215009999999893
215,3,0.8,100.0,1.0,1,1.0,0.2714009999999689
216,3,0.8,0.0,-1.0,1,0.0,0.21189999999978681
217,3,0.8,0.0,-1.0,1,0.0,0.3382010000000264
218,3,0.8,100.0,-1.0,-1,1.0,0.19890100000020539
219,3,0.8,0.0,-1.0,-1,1.0,0.3218010000000504
220,3,0.8,25.0,1.0,1,1.0,0.32220099999995
221,3,0.8,100.0,1.0,1,1.0,0.34520100000008824
222,3,0.8,100.0,-1.0,-1,1.0,0.23550100000011298
223,3,0.8,12.5,1.0,1,1.0,0.37530100000003586
224,3,0.8,12.5,-1.0,-1,1.0,0.2958009999999831
225,3,0.8,100.0,-1.0,-1,1.0,0.08890099999985068
226,3,0.8,6.25,-1.0,-1,1.0,0.22930099999985032
227,3,0.8,0.0,-1.0,-1,1.0,0.10570099999995364
228,3,0.8,6.25,-1.0,-1,1.0,0.1327009999999973
229,3,0.8,6.25,-1.0,-1,1.0,0.29920100000003913
230,3,0.8,100.0,-1.0,-1,1.0,0.19960100000002967
231,3,0.8,12.5,-1.0,-1,1.0,0.20600100000001476
232,3,0.8,0.0,-1.0,-1,1.0,0.31670099999996637
233,3,0.8,6.25,-1.0,-1,1.0,0.3063009999998485
234,3,0.8,100.0,-1.0,-1,1.0,0.22650099999987106
235,3,0.8,6.25,1.0,-1,0.0,0.22649999999998727
236,3,0.8,6.25,1.0,-1,0.0,0.25010100000008606
237,3,0.8,12.5,-1.0,-1,1.0,0.21650099999988015
238,3,0.8,25.0,-1.0,-1,1.0,0.24020100000007005
239,3,0.8,0.0,-1.0,-1,1.0,0.24340100000017628
240,3,0.8,6.25,-1.0,-1,1.0,0.20380100000011225
241,3,0.8,6.25,1.0,-1,0.0,0.13700100000005477
242,3,0.8,0.0,-1.0,-1,1.0,0.21430100000020502
243,3,0.8,12.5,1.0,-1,0.0,0.2871010000001206
244,3,0.8,12.5,-1.0,-1,1.0,0.2576010000000224
245,3,0.8,100.0,-1.0,-1,1.0,0.2072009999999409
246,3,0.8,12.5,-1.0,-1,1.0,0.13080100000001949
247,3,0.8,0.0,1.0,-1,0.0,0.28720099999986815
248,3,0.8,12.5,-1.0,-1,1.0,0.22440100000017082
249,3,0.8,12.5,-1.0,-1,1.0,0.2375010000000657
250,3,0.8,0.0,-1.0,-1,1.0,0.151100999999926
251,3,0.8,25.0,-1.0,-1,1.0,0.3042009999999209
252,3,0.8,12.5,-1.0,-1,1.0,0.2213010000000395
253,3,0.8,6.25,-1.0,-1,1.0,0.2611010000000533
254,3,0.8,100.0,1.0,1,1.0,0.291501000000153
255,3,0.8,12.5,-1.0,-1,1.0,0.2612010000000282
256,3,0.8,25.0,-1.0,-1,1.0,0.2149010000000544
257,3,0.8,0.0,1.0,-1,0.0,0.4314009999998234
258,3,0.8,0.0,-1.0,1,0.0,0.32520100000010643
259,3,0.8,25.0,-1.0,-1,1.0,0.18820099999993545
260,3,0.8,100.0,1.0,1,1.0,0.24860100000000784
261,3,0.8,0.0,-1.0,1,0.0,1.47520099999997
262,3,0.8,6.25,-1.0,-1,1.0,0.5624009999999089
263,3,0.8,100.0,-1.0,-1,1.0,0.22860100000002603
264,3,0.8,12.5,1.0,-1,0.0,0.16890100000023267
265,3,0.8,0.0,-1.0,1,0.0,0.3153010000000904
266,3,0.8,100.0,-1.0,-1,1.0,0.18250100000000202
267,3,0.8,6.25,-1.0,-1,1.0,0.2155999999999949
268,3,0.8,25.0,-1.0,-1,1.0,0.19580000000019027
269,3,0.8,6.25,-1.0,-1,1.0,0.19570100000009916
270,3,0.8,12.5,1.0,-1,0.0,0.13280099999974482
271,3,0.8,0.0,-1.0,-1,1.0,0.2858009999999922
272,3,0.8,6.25,-1.0,-1,1.0,0.3764009999999871
273,3,0.8,12.5,-1.0,-1,1.0,0.24590100000000348
274,3,0.2,12.5,1.0,-1,0.0,0.2432009999999991
275,3,0.2,25.0,1.0,1,1.0,0.26620099999991
276,3,0.2,0.0,1.0,-1,0.0,0.23660099999983686
277,3,0.2,25.0,1.0,1,1.0,0.30300099999999475
278,3,0.2,12.5,1.0,1,1.0,0.18010099999992235
279,3,0.2,12.5,-1.0,-1,1.0,0.37970099999984086
280,3,0.2,100.0,1.0,1,1.0,0.2735010000001239
281,3,0.2,100.0,-1.0,-1,1.0,0.29660100000000966
282,3,0.2,12.5,-1.0,1,0.0,0.31710100000009334
283,3,0.2,12.5,-1.0,-1,1.0,0.3102010000000064
284,3,0.2,6.25,1.0,1,1.0,0.2273009999998976
285,3,0.2,12.5,-1.0,-1,1.0,0.1670010000000275
286,3,0.2,0.0,1.0,-1,0.0,0.25739999999996144
287,3,0.2,0.0,1.0,-1,0.0,0.1971009999999751
288,3,0.2,25.0,1.0,-1,0.0,0.32090100000004895
289,3,0.2,12.5,1.0,-1,0.0,0.29060099999992417
290,3,0.2,12.5,1.0,1,1.0,0.2211010000000897
291,3,0.2,0.0,1.0,1,1.0,0.24760099999980412
292,3,0.2,12.5,1.0,1,1.0,0.1244010000000344
293,3,0.2,25.0,1.0,1,1.0,0.2678009999999631
294,3,0.2,100.0,1.0,1,1.0,0.2114009999997961
295,3,0.2,0.0,1.0,1,1.0,0.2979009999999107
296,3,0.2,0.0,1.0,1,1.0,0.2616009999999278
297,3,0.8,6.25,-1.0,1,0.0,0.2880000000000109
298,3,0.8,12.5,-1.0,-1,1.0,0.3954009999997652
299,3,0.8,12.5,-1.0,-1,1.0,0.26820100000009006
300,3,0.8,12.5,-1.0,-1,1.0,0.25200100000006387
301,3,0.8,100.0,1.0,1,1.0,0.2050010000000384
302,3,0.8,0.0,1.0,1,1.0,0.8926010000000133
303,3,0.8,0.0,1.0,1,1.0,0.2586010000002261
304,3,0.8,25.0,-1.0,-1,1.0,0.29910100000006423
305,3,0.8,100.0,-1.0,-1,1.0,0.2155009999999038
306,3,0.8,25.0,-1.0,-1,1.0,0.24600100000020575
307,3,0.8,25.0,-1.0,-1,1.0,0.2158009999998285
308,3,0.8,6.25,-1.0,-1,1.0,0.32290000000011787
309,3,0.8,25.0,-1.0,-1,1.0,0.20920100000012098
310,3,0.8,0.0,-1.0,-1,1.0,0.3062009999998736
311,3,0.8,6.25,-1.0,-1,1.0,0.2825009999999111
312,3,0.8,25.0,-1.0,-1,1.0,0.20630100000016682
313,3,0.8,6.25,1.0,1,1.0,0.6428009999999631
314,3,0.8,0.0,-1.0,1,0.0,0.5898010000000795
315,3,0.8,6.25,-1.0,-1,1.0,0.21630099999993035
316,3,0.8,0.0,-1.0,1,0.0,0.3702010000001792
317,3,0.8,12.5,-1.0,-1,1.0,0.17980099999999766
318,3,0.8,100.0,-1.0,-1,1.0,0.11679999999978463
319,3,0.8,6.25,-1.0,-1,1.0,0.25320099999999
320,3,0.8,12.5,1.0,1,1.0,0.2940009999999802
321,3,0.8,25.0,1.0,-1,0.0,0.11010099999998602
322,3,0.8,12.5,1.0,1,1.0,0.16380099999992126
323,3,0.8,0.0,-1.0,-1,1.0,0.3703009999999267
324,3,0.8,6.25,-1.0,-1,1.0,0.21420099999977538
325,3,0.8,12.5,-1.0,-1,1.0,0.22050100000001294
326,3,0.8,100.0,-1.0,-1,1.0,0.16750099999990198
327,3,0.8,25.0,-1.0,-1,1.0,0.12059999999974025
328,3,0.8,12.5,-1.0,-1,1.0,0.1772009999999682
329,3,0.2,6.25,1.0,1,1.0,0.23780099999999038
330,3,0.2,100.0,1.0,1,1.0,0.2974010000000362
331,3,0.2,100.0,1.0,-1,0.0,0.13150100000007114
332,3,0.2,25.0,1.0,1,1.0,0.24430099999995036
333,3,0.2,0.0,1.0,1,1.0,0.3481010000000424
334,3,0.2,12.5,1.0,1,1.0,0.21780100000000857
335,3,0.2,6.25,1.0,1,1.0,0.11830099999997401
336,3,0.2,0.0,-1.0,-1,1.0,0.35140099999989616
337,3,0.2,12.5,1.0,1,1.0,0.24839999999994689
338,3,0.2,6.25,-1.0,1,0.0,0.30470100000002276
339,3,0.2,6.25,1.0,1,1.0,0.2351010000002134
340,3,0.2,6.25,-1.0,1,0.0,0.28830100000004677
341,3,0.2,0.0,1.0,1,1.0,0.20210100000008424
342,3,0.2,25.0,1.0,1,1.0,0.2452010000001792
343,3,0.2,0.0,1.0,-1,0.0,0.2923009999999522
344,3,0.2,0.0,1.0,1,1.0,0.2621000000001459
345,3,0.2,6.25,1.0,1,1.0,0.23920099999986633
346,3,0.2,0.0,1.0,1,1.0,0.24220100000002276
347,3,0.2,0.0,1.0,1,1.0,0.3160009999999147
348,3,0.2,100.0,1.0,1,1.0,0.2357009999998354
349,3,0.2,25.0,1.0,1,1.0,0.2095009999998183
350,3,0.2,6.25,1.0,1,1.0,0.23600099999998747
351,3,0.2,0.0,1.0,1,1.0,0.21660100000008242
352,3,0.2,6.25,1.0,1,1.0,0.5194010000002436
353,3,0.2,100.0,1.0,1,1.0,0.24670099999980266
354,3,0.2,25.0,1.0,1,1.0,0.2230010000000675
355,3,0.2,100.0,-1.0,-1,1.0,0.23680100000001403
356,3,0.2,25.0,1.0,1,1.0,0.47640100000012353
357,3,0.2,0.0,1.0,-1,0.0,0.6136010000000169
358,3,0.2,6.25,1.0,1,1.0,0.28660100000024613
359,3,0.2,0.0,-1.0,1,0.0,0.3338010000002214
360,3,0.2,0.0,1.0,1,1.0,0.25010100000008606
361,3,0.2,6.25,1.0,1,1.0,0.22750100000007478
362,3,0.2,6.25,-1.0,-1,1.0,0.24050100000022212
363,3,0.2,25.0,1.0,1,1.0,0.2375009999998383
364,3,0.2,6.25,1.0,-1,0.0,0.3206009999998969
365,3,0.2,25.0,1.0,1,1.0,0.3944010000000162
366,3,0.2,100.0,1.0,1,1.0,0.3176009999999678
367,3,0.2,0.0,1.0,1,1.0,0.2412010000000464
368,3,0.2,6.25,1.0,-1,0.0,0.2676009999997859
369,3,0.2,100.0,1.0,1,1.0,0.33820100000025377
370,3,0.8,0.0,-1.0,1,0.0,0.2478009999999813
371,3,0.8,100.0,-1.0,-1,1.0,0.2150010000000293
372,3,0.8,100.0,-1.0,-1,1.0,0.24800099999993108
373,3,0.8,100.0,1.0,1,1.0,0.19840100000010352
374,3,0.8,6.25,-1.0,-1,1.0,0.27820100000008097
375,3,0.8,12.5,-1.0,1,0.0,0.7254010000001472
376,3,0.8,6.25,-1.0,1,0.0,0.3083010000000286
377,3,0.8,6.25,-1.0,1,0.0,0.3987010000000737
378,3,0.8,100.0,1.0,1,1.0,0.24510099999997692
379,3,0.8,100.0,1.0,1,1.0,0.24240099999974518
380,3,0.8,25.0,-1.0,-1,1.0,0.3986010000000988
381,3,0.8,12.5,-1.0,1,0.0,0.3526010000000497
382,3,0.8,100.0,-1.0,-1,1.0,0.2254009999999198
383,3,0.8,12.5,-1.0,-1,1.0,0.26270100000010643
384,3,0.8,12.5,-1.0,-1,1.0,0.23900000000003274
385,3,0.8,25.0,-1.0,-1,1.0,0.2661009999999351
386,3,0.8,12.5,-1.0,-1,1.0,0.2392010000000937
387,3,0.8,12.5,-1.0,-1,1.0,0.2698009999999158
388,3,0.8,0.0,-1.0,-1,1.0,0.2494010000000344
389,3,0.8,0.0,-1.0,-1,1.0,0.13660099999970043
390,3,0.8,0.0,1.0,-1,0.0,0.29950099999973645
391,3,0.8,100.0,-1.0,-1,1.0,0.28340099999991253
392,3,0.8,6.25,-1.0,-1,1.0,0.3164009999998143
393,3,0.8,0.0,-1.0,-1,1.0,0.35670099999993
394,3,0.8,12.5,-1.0,-1,1.0,0.23320100000023558
395,3,0.8,25.0,1.0,1,1.0,1.4306010000000242
396,3,0.8,12.5,-1.0,-1,1.0,0.24010099999986778
397,3,0.8,6.25,-1.0,-1,1.0,0.2540010000000166
398,3,0.8,12.5,-1.0,-1,1.0,0.2238009999998667
399,3,0.8,25.0,-1.0,-1,1.0,0.2940009999999802
400,3,0.8,12.5,-1.0,-1,1.0,0.25060099999996055
401,3,0.8,25.0,-1.0,-1,1.0,1.424601000000166
402,3,0.8,6.25,1.0,-1,0.0,0.2875010000000202
403,3,0.8,0.0,-1.0,-1,1.0,0.2414009999999962
404,3,0.8,100.0,-1.0,-1,1.0,0.24090099999989434
405,3,0.8,12.5,-1.0,-1,1.0,0.271701000000121
406,3,0.8,0.0,-1.0,-1,1.0,0.16790099999980157
407,3,0.8,0.0,-1.0,-1,1.0,0.24170100000014827
408,3,0.8,100.0,-1.0,-1,1.0,0.23140099999977792
409,3,0.8,0.0,1.0,-1,0.0,0.25870099999997365
410,3,0.8,6.25,-1.0,-1,1.0,0.31500099999993836
411,3,0.8,0.0,-1.0,1,0.0,0.34880100000009406
412,3,0.8,25.0,-1.0,-1,1.0,0.21850100000006023
413,3,0.8,25.0,-1.0,-1,1.0,0.22920099999987542
414,3,0.8,12.5,-1.0,-1,1.0,0.23850100000004204
415,3,0.8,6.25,1.0,-1,0.0,0.2791010000000824
416,3,0.8,25.0,-1.0,-1,1.0,0.2755009999998492
417,3,0.8,0.0,-1.0,-1,1.0,0.09260100000005878
418,3,0.8,12.5,-1.0,-1,1.0,0.3890009999997801
419,3,0.8,100.0,1.0,1,1.0,0.21610099999998056
420,3,0.8,6.25,1.0,-1,0.0,0.379200999999739
421,3,0.8,0.0,-1.0,-1,1.0,0.22970100000020466
422,3,0.8,0.0,-1.0,-1,1.0,0.2494010000000344
423,3,0.8,12.5,1.0,1,1.0,0.3565009999999802
424,3,0.8,100.0,-1.0,-1,1.0,0.11290099999996528
425,3,0.8,25.0,-1.0,-1,1.0,0.23660099999983686
426,3,0.8,100.0,-1.0,-1,1.0,0.24640099999987797
427,3,0.8,6.25,-1.0,-1,1.0,0.320100999999795
428,3,0.8,100.0,-1.0,-1,1.0,0.2331010000000333
429,3,0.8,6.25,-1.0,1,0.0,0.3035010000000966
430,3,0.8,6.25,-1.0,-1,1.0,0.23670099999981176
431,3,0.8,25.0,-1.0,-1,1.0,0.237201000000141
432,3,0.8,12.5,-1.0,-1,1.0,0.24010099999986778
433,3,0.8,0.0,-1.0,-1,1.0,0.10730100000000675
434,3,0.8,12.5,-1.0,-1,1.0,0.17400099999986196
435,3,0.8,25.0,-1.0,-1,1.0,0.12370099999998274
436,3,0.8,25.0,-1.0,-1,1.0,0.3073010000000522
437,3,0.8,0.0,-1.0,-1,1.0,0.21060000000011314
438,3,0.8,6.25,-1.0,-1,1.0,0.12090100000000348
439,3,0.8,100.0,-1.0,-1,1.0,0.2540009999997892
440,3,0.8,100.0,1.0,1,1.0,0.3212009999997463
441,3,0.8,12.5,-1.0,-1,1.0,0.26760099999955855
442,3,0.8,100.0,-1.0,-1,1.0,0.2350999999994201
443,3,0.8,100.0,-1.0,-1,1.0,0.33790099999987433
444,3,0.8,25.0,1.0,1,1.0,0.43830099999968297
445,3,0.8,12.5,-1.0,-1,1.0,0.15790100000003804
446,3,0.8,100.0,1.0,-1,0.0,0.3651009999998678
447,3,0.2,25.0,1.0,-1,0.0,0.22820099999944432
448,3,0.2,12.5,-1.0,-1,1.0,0.2452010000001792
449,3,0.2,0.0,1.0,-1,0.0,0.2683009999996102
450,3,0.2,6.25,1.0,1,1.0,0.3989010000000235
451,3,0.2,6.25,1.0,1,1.0,0.26850099999956
452,3,0.2,25.0,1.0,1,1.0,0.2623009999997521
453,3,0.2,100.0,1.0,1,1.0,0.25530099999969025
454,3,0.2,25.0,1.0,1,1.0,0.35910100000000966
455,3,0.2,25.0,1.0,1,1.0,0.3688009999996211
456,3,0.2,100.0,1.0,-1,0.0,0.12270099999977901
457,3,0.2,6.25,1.0,1,1.0,0.2923009999999522
458,3,0.2,100.0,1.0,1,1.0,0.2296010000000024
459,3,0.2,100.0,1.0,1,1.0,0.25920099999984814
460,3,0.2,12.5,1.0,1,1.0,0.2629009999996015
461,3,0.2,100.0,1.0,1,1.0,0.3127009999998336
462,3,0.2,6.25,-1.0,1,0.0,0.2967009999997572
463,3,0.2,12.5,1.0,1,1.0,0.2329009999994014
464,3,0.2,12.5,1.0,1,1.0,0.2734009999994669
465,3,0.2,100.0,1.0,1,1.0,0.2830999999996493
466,3,0.2,0.0,1.0,-1,0.0,0.24400099999957092
467,3,0.2,25.0,-1.0,1,0.0,0.2967009999997572
468,3,0.2,0.0,1.0,1,1.0,0.2971010000001115
469,3,0.2,25.0,1.0,1,1.0,0.3470009999996364
470,3,0.2,25.0,1.0,1,1.0,0.28730099999984304
471,3,0.2,12.5,1.0,1,1.0,0.25710099999969316
472,3,0.2,100.0,1.0,1,1.0,0.2609999999995125
473,3,0.2,12.5,-1.0,-1,1.0,0.5006009999997332
474,3,0.2,0.0,1.0,-1,0.0,0.3309999999996762
475,3,0.2,25.0,1.0,1,1.0,0.27080100000011953
476,3,0.2,25.0,1.0,1,1.0,0.3115009999992253
477,3,0.2,0.0,1.0,1,1.0,0.2742009999997208
478,3,0.2,12.5,1.0,1,1.0,0.3414009999996779
479,3,0.2,25.0,-1.0,-1,1.0,0.244300999999723
480,3,0.2,0.0,1.0,1,1.0,0.5949009999994814
481,3,0.2,100.0,1.0,1,1.0,0.24460099999987506
482,3,0.2,0.0,1.0,1,1.0,0.47830100000010134
483,3,0.2,6.25,1.0,1,1.0,0.28470100000004095
484,3,0.2,12.5,1.0,1,1.0,0.2950009999995018
485,3,0.2,0.0,1.0,1,1.0,0.3148009999995338
486,3,0.2,100.0,1.0,1,1.0,0.2819009999998343
487,3,0.2,12.5,-1.0,1,0.0,0.3116009999994276
488,3,0.2,0.0,1.0,1,1.0,0.5423009999994974
489,3,0.2,6.25,1.0,1,1.0,0.5453009999996539
490,3,0.2,6.25,1.0,1,1.0,0.315900000000056
491,3,0.2,12.5,1.0,1,1.0,0.23530100000016319
492,3,0.2,100.0,1.0,1,1.0,0.2927009999998518
493,3,0.2,12.5,1.0,1,1.0,0.28900100000009843
494,3,0.2,25.0,1.0,1,1.0,0.31940099999974336
495,3,0.2,100.0,1.0,1,1.0,0.3124009999996815
496,3,0.8,12.5,-1.0,-1,1.0,0.29620100000011007
497,3,0.8,6.25,-1.0,1,0.0,0.3660009999994145
498,3,0.8,6.25,-1.0,1,0.0,0.23640100000011444
499,3,0.8,6.25,-1.0,-1,1.0,0.3595009999994545
500,3,0.8,0.0,-1.0,1,0.0,0.24680099999977756
501,3,0.8,0.0,-1.0,-1,1.0,0.2765009999998256
502,3,0.8,12.5,-1.0,-1,1.0,0.29370099999960075
503,3,0.8,6.25,-1.0,-1,1.0,0.2998999999999796
504,3,0.8,0.0,-1.0,-1,1.0,0.1371009999998023
505,3,0.8,0.0,-1.0,-1,1.0,0.23000099999944723
506,3,0.8,12.5,-1.0,-1,1.0,0.1937009999996917
507,3,0.8,12.5,1.0,-1,0.0,0.15359999999964202
508,3,0.8,6.25,-1.0,-1,1.0,0.28740099999959057
509,3,0.8,12.5,-1.0,-1,1.0,0.2537010000000919
510,3,0.8,6.25,-1.0,-1,1.0,0.2710009999996146
511,3,0.8,100.0,-1.0,-1,1.0,0.260700999999699
512,3,0.8,12.5,-1.0,-1,1.0,0.22440099999994345
513,3,0.8,25.0,-1.0,-1,1.0,0.1842009999995753
514,3,0.8,6.25,-1.0,-1,1.0,0.3645010000000184
515,3,0.8,0.0,-1.0,-1,1.0,0.3477010000001428
516,3,0.8,6.25,-1.0,-1,1.0,0.30820099999937156
517,3,0.8,25.0,-1.0,-1,1.0,0.2145009999994727
518,3,0.8,25.0,-1.0,-1,1.0,0.2384009999996124
519,3,0.8,100.0,1.0,1,1.0,0.5713009999999485
520,3,0.8,0.0,1.0,-1,0.0,0.27200100000027305
521,3,0.8,12.5,-1.0,-1,1.0,0.26830100000006496
522,3,0.8,0.0,-1.0,-1,1.0,0.26860099999930753
523,3,0.8,25.0,-1.0,-1,1.0,0.26180099999965023
524,3,0.8,0.0,-1.0,-1,1.0,0.24230099999977028
525,3,0.8,25.0,-1.0,-1,1.0,0.2018009999997048
526,3,0.8,6.25,1.0,-1,0.0,0.3725009999998292
527,3,0.8,25.0,-1.0,-1,1.0,0.24210100000027523
528,3,0.8,12.5,-1.0,-1,1.0,0.23260099999970407
529,3,0.8,12.5,-1.0,-1,1.0,0.12590100000034
530,3,0.8,6.25,-1.0,-1,1.0,0.32620099999940066
531,3,0.8,6.25,-1.0,-1,1.0,0.27920099999982995
532,3,0.8,6.25,-1.0,-1,1.0,0.256300999999894
533,3,0.8,0.0,-1.0,-1,1.0,0.2459009999997761
534,3,0.8,25.0,-1.0,-1,1.0,0.19650099999989834
535,3,0.8,0.0,-1.0,-1,1.0,0.5861010000003262
536,3,0.8,100.0,-1.0,-1,1.0,0.21670099999982995
537,3,0.8,6.25,-1.0,-1,1.0,0.2496009999999842
538,3,0.8,100.0,-1.0,-1,1.0,0.20370099999990998
539,3,0.8,6.25,-1.0,-1,1.0,0.29310099999975137
540,3,0.8,6.25,-1.0,-1,1.0,0.23370100000011007
541,3,0.8,25.0,-1.0,-1,1.0,0.21330099999977392
542,3,0.8,0.0,-1.0,-1,1.0,0.21050100000002203
543,3,0.8,100.0,1.0,1,1.0,0.25700099999994563
544,3,0.8,12.5,-1.0,-1,1.0,0.2675009999993563
545,3,0.8,0.0,-1.0,-1,1.0,0.3103009999999813
546,3,0.8,0.0,-1.0,-1,1.0,0.1340009999994436
547,3,0.8,25.0,-1.0,-1,1.0,0.23060099999975137
548,3,0.8,25.0,-1.0,-1,1.0,0.2677009999997608
549,3,0.8,100.0,-1.0,-1,1.0,0.23720099999991362
550,3,0.8,0.0,-1.0,-1,1.0,0.24120099999981903
